onset	duration	trial_type	response_time	Endowment	Endowment_pmod	Decision	Decision_pmod	Offer_pmod
4.515858	2	cue_nonsocial	n/a	16	-7	n/a	n/a	n/a
4.515858	2	cue_nonsocial_low	n/a	16	-9	n/a	n/a	n/a
11.341141	2	cue_social	n/a	16	-9	n/a	n/a	n/a
11.341141	2	cue_social_low	n/a	16	-7	n/a	n/a	n/a
18.174890	2	cue_social	n/a	16	-9	n/a	n/a	n/a
18.174890	2	cue_social_low	n/a	16	-7	n/a	n/a	n/a
27.424360	2	cue_nonsocial	n/a	16	-7	n/a	n/a	n/a
27.424360	2	cue_nonsocial_low	n/a	16	-9	n/a	n/a	n/a
35.074673	2	cue_nonsocial	n/a	16	-7	n/a	n/a	n/a
35.074673	2	cue_nonsocial_low	n/a	16	-9	n/a	n/a	n/a
42.750027	2	cue_social	n/a	32	7	n/a	n/a	n/a
42.750027	2	cue_social_high	n/a	32	9	n/a	n/a	n/a
49.559486	2	cue_nonsocial	n/a	16	-7	n/a	n/a	n/a
49.559486	2	cue_nonsocial_low	n/a	16	-9	n/a	n/a	n/a
56.391390	2	cue_nonsocial	n/a	32	9	n/a	n/a	n/a
56.391390	2	cue_nonsocial_high	n/a	32	7	n/a	n/a	n/a
63.223988	2	cue_nonsocial	n/a	16	-7	n/a	n/a	n/a
63.223988	2	cue_nonsocial_low	n/a	16	-9	n/a	n/a	n/a
74.091255	2	cue_nonsocial	n/a	16	-7	n/a	n/a	n/a
74.091255	2	cue_nonsocial_low	n/a	16	-9	n/a	n/a	n/a
81.741630	2	cue_nonsocial	n/a	16	-7	n/a	n/a	n/a
81.741630	2	cue_nonsocial_low	n/a	16	-9	n/a	n/a	n/a
90.993164	2	cue_nonsocial	n/a	32	9	n/a	n/a	n/a
90.993164	2	cue_nonsocial_high	n/a	32	7	n/a	n/a	n/a
101.857994	2	cue_nonsocial	n/a	32	9	n/a	n/a	n/a
101.857994	2	cue_nonsocial_high	n/a	32	7	n/a	n/a	n/a
108.811080	2	cue_social	n/a	32	7	n/a	n/a	n/a
108.811080	2	cue_social_high	n/a	32	9	n/a	n/a	n/a
115.524315	2	cue_nonsocial	n/a	32	9	n/a	n/a	n/a
115.524315	2	cue_nonsocial_high	n/a	32	7	n/a	n/a	n/a
122.377510	2	cue_social	n/a	16	-9	n/a	n/a	n/a
122.377510	2	cue_social_low	n/a	16	-7	n/a	n/a	n/a
129.992800	2	cue_nonsocial	n/a	16	-7	n/a	n/a	n/a
129.992800	2	cue_nonsocial_low	n/a	16	-9	n/a	n/a	n/a
136.947080	2	cue_social	n/a	32	7	n/a	n/a	n/a
136.947080	2	cue_social_high	n/a	32	9	n/a	n/a	n/a
146.144710	2	cue_social	n/a	32	7	n/a	n/a	n/a
146.144710	2	cue_social_high	n/a	32	9	n/a	n/a	n/a
153.771790	2	cue_social	n/a	16	-9	n/a	n/a	n/a
153.771790	2	cue_social_low	n/a	16	-7	n/a	n/a	n/a
160.616260	2	cue_nonsocial	n/a	32	9	n/a	n/a	n/a
160.616260	2	cue_nonsocial_high	n/a	32	7	n/a	n/a	n/a
169.963840	2	cue_social	n/a	32	7	n/a	n/a	n/a
169.963840	2	cue_social_high	n/a	32	9	n/a	n/a	n/a
176.674360	2	cue_nonsocial	n/a	16	-7	n/a	n/a	n/a
176.674360	2	cue_nonsocial_low	n/a	16	-9	n/a	n/a	n/a
183.504870	2	cue_social	n/a	32	7	n/a	n/a	n/a
183.504870	2	cue_social_high	n/a	32	9	n/a	n/a	n/a
190.357800	2	cue_nonsocial	n/a	32	9	n/a	n/a	n/a
190.357800	2	cue_nonsocial_high	n/a	32	7	n/a	n/a	n/a
199.735090	2	cue_social	n/a	32	7	n/a	n/a	n/a
199.735090	2	cue_social_high	n/a	32	9	n/a	n/a	n/a
212.189600	2	cue_social	n/a	16	-9	n/a	n/a	n/a
212.189600	2	cue_social_low	n/a	16	-7	n/a	n/a	n/a
218.942540	2	cue_nonsocial	n/a	16	-7	n/a	n/a	n/a
218.942540	2	cue_nonsocial_low	n/a	16	-9	n/a	n/a	n/a
226.707030	2	cue_social	n/a	32	7	n/a	n/a	n/a
226.707030	2	cue_social_high	n/a	32	9	n/a	n/a	n/a
233.423310	2	cue_social	n/a	32	7	n/a	n/a	n/a
233.423310	2	cue_social_high	n/a	32	9	n/a	n/a	n/a
240.276820	2	cue_social	n/a	16	-9	n/a	n/a	n/a
240.276820	2	cue_social_low	n/a	16	-7	n/a	n/a	n/a
247.192720	2	cue_social	n/a	16	-9	n/a	n/a	n/a
247.192720	2	cue_social_low	n/a	16	-7	n/a	n/a	n/a
253.924240	2	cue_nonsocial	n/a	16	-7	n/a	n/a	n/a
253.924240	2	cue_nonsocial_low	n/a	16	-9	n/a	n/a	n/a
261.591830	2	cue_nonsocial	n/a	16	-7	n/a	n/a	n/a
261.591830	2	cue_nonsocial_low	n/a	16	-9	n/a	n/a	n/a
268.424440	2	cue_nonsocial	n/a	16	-7	n/a	n/a	n/a
268.424440	2	cue_nonsocial_low	n/a	16	-9	n/a	n/a	n/a
276.181120	2	cue_social	n/a	32	7	n/a	n/a	n/a
276.181120	2	cue_social_high	n/a	32	9	n/a	n/a	n/a
282.915130	2	cue_social	n/a	32	7	n/a	n/a	n/a
282.915130	2	cue_social_high	n/a	32	9	n/a	n/a	n/a
290.557860	2	cue_nonsocial	n/a	32	9	n/a	n/a	n/a
290.557860	2	cue_nonsocial_high	n/a	32	7	n/a	n/a	n/a
298.313600	2	cue_social	n/a	32	7	n/a	n/a	n/a
298.313600	2	cue_social_high	n/a	32	9	n/a	n/a	n/a
305.041560	2	cue_nonsocial	n/a	32	9	n/a	n/a	n/a
305.041560	2	cue_nonsocial_high	n/a	32	7	n/a	n/a	n/a
312.690520	2	cue_nonsocial	n/a	16	-7	n/a	n/a	n/a
312.690520	2	cue_nonsocial_low	n/a	16	-9	n/a	n/a	n/a
322.028500	2	cue_social	n/a	32	7	n/a	n/a	n/a
322.028500	2	cue_social_high	n/a	32	9	n/a	n/a	n/a
328.891080	2	cue_social	n/a	16	-9	n/a	n/a	n/a
328.891080	2	cue_social_low	n/a	16	-7	n/a	n/a	n/a
336.440900	2	cue_nonsocial	n/a	32	9	n/a	n/a	n/a
336.440900	2	cue_nonsocial_high	n/a	32	7	n/a	n/a	n/a
343.275300	2	cue_nonsocial	n/a	32	9	n/a	n/a	n/a
343.275300	2	cue_nonsocial_high	n/a	32	7	n/a	n/a	n/a
352.630370	2	cue_social	n/a	16	-9	n/a	n/a	n/a
352.630370	2	cue_social_low	n/a	16	-7	n/a	n/a	n/a
360.278470	2	cue_social	n/a	16	-9	n/a	n/a	n/a
360.278470	2	cue_social_low	n/a	16	-7	n/a	n/a	n/a
367.116240	2	cue_social	n/a	16	-9	n/a	n/a	n/a
367.116240	2	cue_social_low	n/a	16	-7	n/a	n/a	n/a
6.513007	2.684236	dec_nonsocial_choice	2.684236	16.000000	n/a	1	-1.754808e-01	-1.754808e-01
6.513007	2.684236	dec_choice	2.684236	16.000000	n/a	1	-1.890625e-01	-1.890625e-01
6.513007	2.684236	dec_nonsocial_accept	2.684236	16.000000	n/a	1	-2.241848e-01	-2.241848e-01
6.513007	2.684236	dec_accept	2.684236	16.000000	n/a	1	-2.312500e-01	-2.312500e-01
6.513007	2.684236	dec_nonsocial_low	2.684236	16.000000	n/a	1	-1.890625e-01	-1.890625e-01
6.513007	2.684236	dec_nonsocial_accept_low	2.684236	16.000000	n/a	1	-2.312500e-01	-2.312500e-01
13.346850	2.149754	dec_social_choice	2.149754	16.000000	n/a	0	0	-2.379808e-01
13.346850	2.149754	dec_choice	2.149754	16.000000	n/a	0	0	-2.236842e-01
13.346850	2.149754	dec_social_reject	2.149754	16.000000	n/a	0	0	8.203125e-02
13.346850	2.149754	dec_reject	2.149754	16.000000	n/a	0	0	6.250000e-02
13.346850	2.149754	dec_social_low	2.149754	16.000000	n/a	0	-2.236842e-01	-2.236842e-01
13.346850	2.149754	dec_social_reject_low	2.149754	16.000000	n/a	4	2.631579e-02	-2.236842e-01
20.179607	1.216816	dec_social_choice	1.216816	16.000000	n/a	4	1.201923e-02	1.201923e-02
20.179607	1.216816	dec_choice	1.216816	16.000000	n/a	4	2.631579e-02	2.631579e-02
20.179607	1.216816	dec_social_accept	1.216816	16.000000	n/a	4	-3.668478e-02	-3.668478e-02
20.179607	1.216816	dec_accept	1.216816	16.000000	n/a	4	-2.343750e-02	-2.343750e-02
20.179607	1.216816	dec_social_high	1.216816	16.000000	n/a	4	2.631579e-02	2.631579e-02
20.179607	1.216816	dec_social_accept_high	1.216816	16.000000	n/a	4	2.631579e-02	2.631579e-02
29.431007	0.999128	dec_nonsocial_choice	0.999128	16.000000	n/a	0	0	-2.379808e-01
29.431007	0.999128	dec_choice	0.999128	16.000000	n/a	0	0	-2.515625e-01
29.431007	0.999128	dec_nonsocial_reject	0.999128	16.000000	n/a	0	0	-4.296875e-02
29.431007	0.999128	dec_reject	0.999128	16.000000	n/a	0	0	0
29.431007	0.999128	dec_nonsocial_reject_low	0.999128	16.000000	n/a	2	-6.250000e-02	-1.875000e-01
37.080910	1.115176	dec_nonsocial_choice	1.115176	16.000000	n/a	4	1.201923e-02	1.201923e-02
37.080910	1.115176	dec_choice	1.115176	16.000000	n/a	4	-1.562500e-03	-1.562500e-03
37.080910	1.115176	dec_nonsocial_accept	1.115176	16.000000	n/a	4	-3.668478e-02	-3.668478e-02
37.080910	1.115176	dec_accept	1.115176	16.000000	n/a	4	-4.375000e-02	-4.375000e-02
37.080910	1.115176	dec_nonsocial_accept_high	1.115176	16.000000	n/a	4	-2.343750e-02	-2.343750e-02
44.728905	1.250814	dec_social_choice	1.250814	32.000000	n/a	0	0	-2.379808e-01
44.728905	1.250814	dec_choice	1.250814	32.000000	n/a	0	0	-2.236842e-01
44.728905	1.250814	dec_social_reject	1.250814	32.000000	n/a	0	0	-1.054688e-01
44.728905	1.250814	dec_reject	1.250814	32.000000	n/a	0	0	-1.250000e-01
44.728905	1.250814	dec_social_reject_low	1.250814	32.000000	n/a	2	-1.611842e-01	-2.236842e-01
51.563020	1.033671	dec_nonsocial_choice	1.033671	16.000000	n/a	4	1.201923e-02	1.201923e-02
51.563020	1.033671	dec_choice	1.033671	16.000000	n/a	4	-1.562500e-03	-1.562500e-03
51.563020	1.033671	dec_nonsocial_accept	1.033671	16.000000	n/a	4	-3.668478e-02	-3.668478e-02
51.563020	1.033671	dec_accept	1.033671	16.000000	n/a	4	-4.375000e-02	-4.375000e-02
51.563020	1.033671	dec_nonsocial_accept_high	1.033671	16.000000	n/a	4	-2.343750e-02	-2.343750e-02
58.396000	1.133921	dec_nonsocial_choice	1.133921	32.000000	n/a	3	-1.442308e-01	-1.442308e-01
58.396000	1.133921	dec_choice	1.133921	32.000000	n/a	3	-1.578125e-01	-1.578125e-01
58.396000	1.133921	dec_nonsocial_accept	1.133921	32.000000	n/a	3	-1.929348e-01	-1.929348e-01
58.396000	1.133921	dec_accept	1.133921	32.000000	n/a	3	-2.000000e-01	-2.000000e-01
58.396000	1.133921	dec_nonsocial_accept_low	1.133921	32.000000	n/a	3	-1.796875e-01	-1.796875e-01
65.230880	2.832405	dec_nonsocial_choice	2.832405	16.000000	n/a	8	2.620192e-01	2.620192e-01
65.230880	2.832405	dec_choice	2.832405	16.000000	n/a	8	2.484375e-01	2.484375e-01
65.230880	2.832405	dec_nonsocial_accept	2.832405	16.000000	n/a	8	2.133152e-01	2.133152e-01
65.230880	2.832405	dec_accept	2.832405	16.000000	n/a	8	2.062500e-01	2.062500e-01
65.230880	2.832405	dec_nonsocial_accept_high	2.832405	16.000000	n/a	8	2.265625e-01	2.265625e-01
76.097920	1.498628	dec_nonsocial_choice	1.498628	16.000000	n/a	0	0	-2.379808e-01
76.097920	1.498628	dec_choice	1.498628	16.000000	n/a	0	0	-2.515625e-01
76.097920	1.498628	dec_nonsocial_reject	1.498628	16.000000	n/a	0	0	-4.296875e-02
76.097920	1.498628	dec_reject	1.498628	16.000000	n/a	0	0	0
76.097920	1.498628	dec_nonsocial_reject_low	1.498628	16.000000	n/a	2	-6.250000e-02	-1.875000e-01
83.746544	0.700248	dec_nonsocial_choice	0.700248	16.000000	n/a	1	-1.754808e-01	-1.754808e-01
83.746544	0.700248	dec_choice	0.700248	16.000000	n/a	1	-1.890625e-01	-1.890625e-01
83.746544	0.700248	dec_nonsocial_accept	0.700248	16.000000	n/a	1	-2.241848e-01	-2.241848e-01
83.746544	0.700248	dec_accept	0.700248	16.000000	n/a	1	-2.312500e-01	-2.312500e-01
83.746544	0.700248	dec_nonsocial_accept_low	0.700248	16.000000	n/a	1	-2.109375e-01	-2.109375e-01
92.996340	3.766946	missed_trial	3.766946	32.000000	n/a	n/a	n/a	n/a
103.863060	1.583720	dec_nonsocial_choice	1.583720	32.000000	n/a	0	0	-2.379808e-01
103.863060	1.583720	dec_choice	1.583720	32.000000	n/a	0	0	-2.515625e-01
103.863060	1.583720	dec_nonsocial_reject	1.583720	32.000000	n/a	0	0	8.203125e-02
103.863060	1.583720	dec_reject	1.583720	32.000000	n/a	0	0	1.250000e-01
103.863060	1.583720	dec_nonsocial_low	1.583720	32.000000	n/a	0	-2.515625e-01	-2.515625e-01
103.863060	1.583720	dec_nonsocial_reject_low	1.583720	32.000000	n/a	8	1.250000e-01	-1.250000e-01
110.695430	3.766946	missed_trial	3.766946	32.000000	n/a	n/a	n/a	n/a
117.530594	2.965296	dec_nonsocial_choice	2.965296	32.000000	n/a	16	2.620192e-01	2.620192e-01
117.530594	2.965296	dec_choice	2.965296	32.000000	n/a	16	2.484375e-01	2.484375e-01
117.530594	2.965296	dec_nonsocial_accept	2.965296	32.000000	n/a	16	2.133152e-01	2.133152e-01
117.530594	2.965296	dec_accept	2.965296	32.000000	n/a	16	2.062500e-01	2.062500e-01
117.530594	2.965296	dec_nonsocial_high	2.965296	32.000000	n/a	16	2.484375e-01	2.484375e-01
117.530594	2.965296	dec_nonsocial_accept_high	2.965296	32.000000	n/a	16	2.062500e-01	2.062500e-01
124.362050	0.634154	dec_social_choice	0.634154	16.000000	n/a	0	0	-2.379808e-01
124.362050	0.634154	dec_choice	0.634154	16.000000	n/a	0	0	-2.236842e-01
124.362050	0.634154	dec_social_reject	0.634154	16.000000	n/a	0	0	-4.296875e-02
124.362050	0.634154	dec_reject	0.634154	16.000000	n/a	0	0	-6.250000e-02
124.362050	0.634154	dec_social_low	0.634154	16.000000	n/a	0	-2.236842e-01	-2.236842e-01
124.362050	0.634154	dec_social_reject_low	0.634154	16.000000	n/a	2	-9.868421e-02	-2.236842e-01
131.997010	2.649574	dec_nonsocial_choice	2.649574	16.000000	n/a	8	2.620192e-01	2.620192e-01
131.997010	2.649574	dec_choice	2.649574	16.000000	n/a	8	2.484375e-01	2.484375e-01
131.997010	2.649574	dec_nonsocial_accept	2.649574	16.000000	n/a	8	2.133152e-01	2.133152e-01
131.997010	2.649574	dec_accept	2.649574	16.000000	n/a	8	2.062500e-01	2.062500e-01
131.997010	2.649574	dec_nonsocial_high	2.649574	16.000000	n/a	8	2.484375e-01	2.484375e-01
131.997010	2.649574	dec_nonsocial_accept_high	2.649574	16.000000	n/a	8	2.062500e-01	2.062500e-01
138.828720	1.333694	dec_social_choice	1.333694	32.000000	n/a	8	1.201923e-02	1.201923e-02
138.828720	1.333694	dec_choice	1.333694	32.000000	n/a	8	2.631579e-02	2.631579e-02
138.828720	1.333694	dec_social_accept	1.333694	32.000000	n/a	8	-3.668478e-02	-3.668478e-02
138.828720	1.333694	dec_accept	1.333694	32.000000	n/a	8	-2.343750e-02	-2.343750e-02
138.828720	1.333694	dec_social_accept_high	1.333694	32.000000	n/a	8	2.631579e-02	2.631579e-02
148.096800	3.766946	missed_trial	3.766946	32.000000	n/a	n/a	n/a	n/a
155.763000	0.016079	dec_social_choice	0.016079	16.000000	n/a	8	2.620192e-01	2.620192e-01
155.763000	0.016079	dec_choice	0.016079	16.000000	n/a	8	2.763158e-01	2.763158e-01
155.763000	0.016079	dec_social_accept	0.016079	16.000000	n/a	8	2.133152e-01	2.133152e-01
155.763000	0.016079	dec_accept	0.016079	16.000000	n/a	8	2.265625e-01	2.265625e-01
155.763000	0.016079	dec_social_high	0.016079	16.000000	n/a	8	2.763158e-01	2.763158e-01
155.763000	0.016079	dec_social_accept_high	0.016079	16.000000	n/a	8	2.763158e-01	2.763158e-01
162.595950	1.217238	dec_nonsocial_choice	1.217238	32.000000	n/a	3	-1.442308e-01	-1.442308e-01
162.595950	1.217238	dec_choice	1.217238	32.000000	n/a	3	-1.578125e-01	-1.578125e-01
162.595950	1.217238	dec_nonsocial_accept	1.217238	32.000000	n/a	3	-1.929348e-01	-1.929348e-01
162.595950	1.217238	dec_accept	1.217238	32.000000	n/a	3	-2.000000e-01	-2.000000e-01
162.595950	1.217238	dec_nonsocial_low	1.217238	32.000000	n/a	3	-1.578125e-01	-1.578125e-01
162.595950	1.217238	dec_nonsocial_accept_low	1.217238	32.000000	n/a	3	-2.000000e-01	-2.000000e-01
171.846100	2.150528	dec_social_choice	2.150528	32.000000	n/a	0	0	-2.379808e-01
171.846100	2.150528	dec_choice	2.150528	32.000000	n/a	0	0	-2.236842e-01
171.846100	2.150528	dec_social_reject	2.150528	32.000000	n/a	0	0	-7.421875e-02
171.846100	2.150528	dec_reject	2.150528	32.000000	n/a	0	0	-9.375000e-02
171.846100	2.150528	dec_social_low	2.150528	32.000000	n/a	0	-2.236842e-01	-2.236842e-01
171.846100	2.150528	dec_social_reject_low	2.150528	32.000000	n/a	3	-1.299342e-01	-2.236842e-01
178.679920	1.150018	dec_nonsocial_choice	1.150018	16.000000	n/a	0	0	-2.379808e-01
178.679920	1.150018	dec_choice	1.150018	16.000000	n/a	0	0	-2.515625e-01
178.679920	1.150018	dec_nonsocial_reject	1.150018	16.000000	n/a	0	0	-1.054688e-01
178.679920	1.150018	dec_reject	1.150018	16.000000	n/a	0	0	-6.250000e-02
178.679920	1.150018	dec_nonsocial_reject_low	1.150018	16.000000	n/a	1	-1.250000e-01	-1.875000e-01
185.513030	3.766946	missed_trial	3.766946	32.000000	n/a	n/a	n/a	n/a
192.364960	3.766946	missed_trial	3.766946	32.000000	n/a	n/a	n/a	n/a
201.629500	1.500508	dec_social_choice	1.500508	32.000000	n/a	0	0	-2.379808e-01
201.629500	1.500508	dec_choice	1.500508	32.000000	n/a	0	0	-2.236842e-01
201.629500	1.500508	dec_social_reject	1.500508	32.000000	n/a	0	0	-1.054688e-01
201.629500	1.500508	dec_reject	1.500508	32.000000	n/a	0	0	-1.250000e-01
201.629500	1.500508	dec_social_low	1.500508	32.000000	n/a	0	-2.236842e-01	-2.236842e-01
201.629500	1.500508	dec_social_reject_low	1.500508	32.000000	n/a	2	-1.611842e-01	-2.236842e-01
214.112630	1.433509	dec_social_choice	1.433509	16.000000	n/a	0	0	-2.379808e-01
214.112630	1.433509	dec_choice	1.433509	16.000000	n/a	0	0	-2.236842e-01
214.112630	1.433509	dec_social_reject	1.433509	16.000000	n/a	0	0	-1.054688e-01
214.112630	1.433509	dec_reject	1.433509	16.000000	n/a	0	0	-1.250000e-01
214.112630	1.433509	dec_social_low	1.433509	16.000000	n/a	0	-2.236842e-01	-2.236842e-01
214.112630	1.433509	dec_social_reject_low	1.433509	16.000000	n/a	1	-1.611842e-01	-2.236842e-01
220.946120	1.199726	dec_nonsocial_choice	1.199726	16.000000	n/a	8	2.620192e-01	2.620192e-01
220.946120	1.199726	dec_choice	1.199726	16.000000	n/a	8	2.484375e-01	2.484375e-01
220.946120	1.199726	dec_nonsocial_accept	1.199726	16.000000	n/a	8	2.133152e-01	2.133152e-01
220.946120	1.199726	dec_accept	1.199726	16.000000	n/a	8	2.062500e-01	2.062500e-01
220.946120	1.199726	dec_nonsocial_high	1.199726	16.000000	n/a	8	2.484375e-01	2.484375e-01
220.946120	1.199726	dec_nonsocial_accept_high	1.199726	16.000000	n/a	8	2.062500e-01	2.062500e-01
228.595440	3.766946	missed_trial	3.766946	32.000000	n/a	n/a	n/a	n/a
235.428970	3.066638	dec_social_choice	3.066638	32.000000	n/a	3	-1.442308e-01	-1.442308e-01
235.428970	3.066638	dec_choice	3.066638	32.000000	n/a	3	-1.299342e-01	-1.299342e-01
235.428970	3.066638	dec_social_accept	3.066638	32.000000	n/a	3	-1.929348e-01	-1.929348e-01
235.428970	3.066638	dec_accept	3.066638	32.000000	n/a	3	-1.796875e-01	-1.796875e-01
235.428970	3.066638	dec_social_low	3.066638	32.000000	n/a	3	-1.299342e-01	-1.299342e-01
235.428970	3.066638	dec_social_accept_low	3.066638	32.000000	n/a	3	-1.299342e-01	-1.299342e-01
242.262050	0.583655	dec_social_choice	0.583655	16.000000	n/a	0	0	-2.379808e-01
242.262050	0.583655	dec_choice	0.583655	16.000000	n/a	0	0	-2.236842e-01
242.262050	0.583655	dec_social_reject	0.583655	16.000000	n/a	0	0	3.320312e-01
242.262050	0.583655	dec_reject	0.583655	16.000000	n/a	0	0	3.125000e-01
242.262050	0.583655	dec_social_reject_low	0.583655	16.000000	n/a	8	2.763158e-01	-2.236842e-01
249.096070	0.383577	dec_social_choice	0.383577	16.000000	n/a	0	0	-2.379808e-01
249.096070	0.383577	dec_choice	0.383577	16.000000	n/a	0	0	-2.236842e-01
249.096070	0.383577	dec_social_reject	0.383577	16.000000	n/a	0	0	3.320312e-01
249.096070	0.383577	dec_reject	0.383577	16.000000	n/a	0	0	3.125000e-01
249.096070	0.383577	dec_social_low	0.383577	16.000000	n/a	0	-2.236842e-01	-2.236842e-01
249.096070	0.383577	dec_social_reject_low	0.383577	16.000000	n/a	8	2.763158e-01	-2.236842e-01
255.929120	3.766946	missed_trial	3.766946	16.000000	n/a	n/a	n/a	n/a
263.595980	0.483755	dec_nonsocial_choice	0.483755	16.000000	n/a	0	0	-2.379808e-01
263.595980	0.483755	dec_choice	0.483755	16.000000	n/a	0	0	-2.515625e-01
263.595980	0.483755	dec_nonsocial_reject	0.483755	16.000000	n/a	0	0	-1.054688e-01
263.595980	0.483755	dec_reject	0.483755	16.000000	n/a	0	0	-6.250000e-02
263.595980	0.483755	dec_nonsocial_low	0.483755	16.000000	n/a	0	-2.515625e-01	-2.515625e-01
263.595980	0.483755	dec_nonsocial_reject_low	0.483755	16.000000	n/a	1	-6.250000e-02	-1.250000e-01
270.429020	0.651046	dec_nonsocial_choice	0.651046	16.000000	n/a	4	1.201923e-02	1.201923e-02
270.429020	0.651046	dec_choice	0.651046	16.000000	n/a	4	-1.562500e-03	-1.562500e-03
270.429020	0.651046	dec_nonsocial_accept	0.651046	16.000000	n/a	4	-3.668478e-02	-3.668478e-02
270.429020	0.651046	dec_accept	0.651046	16.000000	n/a	4	-4.375000e-02	-4.375000e-02
270.429020	0.651046	dec_nonsocial_low	0.651046	16.000000	n/a	4	-1.562500e-03	-1.562500e-03
270.429020	0.651046	dec_nonsocial_accept_low	0.651046	16.000000	n/a	4	-4.375000e-02	-4.375000e-02
278.079900	1.349898	dec_social_choice	1.349898	32.000000	n/a	0	0	-2.379808e-01
278.079900	1.349898	dec_choice	1.349898	32.000000	n/a	0	0	-2.236842e-01
278.079900	1.349898	dec_social_reject	1.349898	32.000000	n/a	0	0	-7.421875e-02
278.079900	1.349898	dec_reject	1.349898	32.000000	n/a	0	0	-9.375000e-02
278.079900	1.349898	dec_social_reject_low	1.349898	32.000000	n/a	3	-1.299342e-01	-2.236842e-01
284.912780	2.599992	dec_social_choice	2.599992	32.000000	n/a	8	1.201923e-02	1.201923e-02
284.912780	2.599992	dec_choice	2.599992	32.000000	n/a	8	2.631579e-02	2.631579e-02
284.912780	2.599992	dec_social_accept	2.599992	32.000000	n/a	8	-3.668478e-02	-3.668478e-02
284.912780	2.599992	dec_accept	2.599992	32.000000	n/a	8	-2.343750e-02	-2.343750e-02
284.912780	2.599992	dec_social_accept_high	2.599992	32.000000	n/a	8	2.631579e-02	2.631579e-02
292.563080	3.766946	missed_trial	3.766946	32.000000	n/a	n/a	n/a	n/a
300.212900	0.383670	dec_social_choice	0.383670	32.000000	n/a	0	0	-2.379808e-01
300.212900	0.383670	dec_choice	0.383670	32.000000	n/a	0	0	-2.236842e-01
300.212900	0.383670	dec_social_reject	0.383670	32.000000	n/a	0	0	8.203125e-02
300.212900	0.383670	dec_reject	0.383670	32.000000	n/a	0	0	6.250000e-02
300.212900	0.383670	dec_social_low	0.383670	32.000000	n/a	0	-2.236842e-01	-2.236842e-01
300.212900	0.383670	dec_social_reject_low	0.383670	32.000000	n/a	8	2.631579e-02	-2.236842e-01
307.046880	1.782441	dec_nonsocial_choice	1.782441	32.000000	n/a	16	2.620192e-01	2.620192e-01
307.046880	1.782441	dec_choice	1.782441	32.000000	n/a	16	2.484375e-01	2.484375e-01
307.046880	1.782441	dec_nonsocial_accept	1.782441	32.000000	n/a	16	2.133152e-01	2.133152e-01
307.046880	1.782441	dec_accept	1.782441	32.000000	n/a	16	2.062500e-01	2.062500e-01
307.046880	1.782441	dec_nonsocial_accept_high	1.782441	32.000000	n/a	16	2.265625e-01	2.265625e-01
314.696200	1.633552	dec_nonsocial_choice	1.633552	16.000000	n/a	8	2.620192e-01	2.620192e-01
314.696200	1.633552	dec_choice	1.633552	16.000000	n/a	8	2.484375e-01	2.484375e-01
314.696200	1.633552	dec_nonsocial_accept	1.633552	16.000000	n/a	8	2.133152e-01	2.133152e-01
314.696200	1.633552	dec_accept	1.633552	16.000000	n/a	8	2.062500e-01	2.062500e-01
314.696200	1.633552	dec_nonsocial_high	1.633552	16.000000	n/a	8	2.484375e-01	2.484375e-01
314.696200	1.633552	dec_nonsocial_accept_high	1.633552	16.000000	n/a	8	2.062500e-01	2.062500e-01
323.945900	1.066528	dec_social_choice	1.066528	32.000000	n/a	3	-1.442308e-01	-1.442308e-01
323.945900	1.066528	dec_choice	1.066528	32.000000	n/a	3	-1.299342e-01	-1.299342e-01
323.945900	1.066528	dec_social_accept	1.066528	32.000000	n/a	3	-1.929348e-01	-1.929348e-01
323.945900	1.066528	dec_accept	1.066528	32.000000	n/a	3	-1.796875e-01	-1.796875e-01
323.945900	1.066528	dec_social_low	1.066528	32.000000	n/a	3	-1.299342e-01	-1.299342e-01
323.945900	1.066528	dec_social_accept_low	1.066528	32.000000	n/a	3	-1.299342e-01	-1.299342e-01
330.779600	3.766946	missed_trial	3.766946	16.000000	n/a	n/a	n/a	n/a
338.446040	1.666546	dec_nonsocial_choice	1.666546	32.000000	n/a	3	-1.442308e-01	-1.442308e-01
338.446040	1.666546	dec_choice	1.666546	32.000000	n/a	3	-1.578125e-01	-1.578125e-01
338.446040	1.666546	dec_nonsocial_accept	1.666546	32.000000	n/a	3	-1.929348e-01	-1.929348e-01
338.446040	1.666546	dec_accept	1.666546	32.000000	n/a	3	-2.000000e-01	-2.000000e-01
338.446040	1.666546	dec_nonsocial_low	1.666546	32.000000	n/a	3	-1.578125e-01	-1.578125e-01
338.446040	1.666546	dec_nonsocial_accept_low	1.666546	32.000000	n/a	3	-2.000000e-01	-2.000000e-01
345.279080	1.366542	dec_nonsocial_choice	1.366542	32.000000	n/a	8	1.201923e-02	1.201923e-02
345.279080	1.366542	dec_choice	1.366542	32.000000	n/a	8	-1.562500e-03	-1.562500e-03
345.279080	1.366542	dec_nonsocial_accept	1.366542	32.000000	n/a	8	-3.668478e-02	-3.668478e-02
345.279080	1.366542	dec_accept	1.366542	32.000000	n/a	8	-4.375000e-02	-4.375000e-02
345.279080	1.366542	dec_nonsocial_low	1.366542	32.000000	n/a	8	-1.562500e-03	-1.562500e-03
345.279080	1.366542	dec_nonsocial_accept_low	1.366542	32.000000	n/a	8	-4.375000e-02	-4.375000e-02
354.529900	1.549267	dec_social_choice	1.549267	16.000000	n/a	0	0	-2.379808e-01
354.529900	1.549267	dec_choice	1.549267	16.000000	n/a	0	0	-2.236842e-01
354.529900	1.549267	dec_social_reject	1.549267	16.000000	n/a	0	0	-1.054688e-01
354.529900	1.549267	dec_reject	1.549267	16.000000	n/a	0	0	-1.250000e-01
354.529900	1.549267	dec_social_low	1.549267	16.000000	n/a	0	-2.236842e-01	-2.236842e-01
354.529900	1.549267	dec_social_reject_low	1.549267	16.000000	n/a	1	-1.611842e-01	-2.236842e-01
362.179900	2.182699	dec_social_choice	2.182699	16.000000	n/a	4	1.201923e-02	1.201923e-02
362.179900	2.182699	dec_choice	2.182699	16.000000	n/a	4	2.631579e-02	2.631579e-02
362.179900	2.182699	dec_social_accept	2.182699	16.000000	n/a	4	-3.668478e-02	-3.668478e-02
362.179900	2.182699	dec_accept	2.182699	16.000000	n/a	4	-2.343750e-02	-2.343750e-02
362.179900	2.182699	dec_social_accept_high	2.182699	16.000000	n/a	4	2.631579e-02	2.631579e-02
369.012940	1.082915	dec_social_choice	1.082915	16.000000	n/a	8	2.620192e-01	2.620192e-01
369.012940	1.082915	dec_choice	1.082915	16.000000	n/a	8	2.763158e-01	2.763158e-01
369.012940	1.082915	dec_social_accept	1.082915	16.000000	n/a	8	2.133152e-01	2.133152e-01
369.012940	1.082915	dec_accept	1.082915	16.000000	n/a	8	2.265625e-01	2.265625e-01
369.012940	1.082915	dec_social_accept_high	1.082915	16.000000	n/a	8	2.763158e-01	2.763158e-01
