onset	duration	trial_type	response_time	Endowment	Endowment_pmod	Decision	Decision_pmod	Offer_pmod
4.509380	2	cue_nonsocial	n/a	32	7	n/a	n/a	n/a
4.509380	2	cue_nonsocial_high	n/a	32	7	n/a	n/a	n/a
11.359058	2	cue_nonsocial	n/a	32	7	n/a	n/a	n/a
11.359058	2	cue_nonsocial_high	n/a	32	7	n/a	n/a	n/a
20.627445	2	cue_nonsocial	n/a	32	7	n/a	n/a	n/a
20.627445	2	cue_nonsocial_high	n/a	32	7	n/a	n/a	n/a
33.125923	2	cue_nonsocial	n/a	16	-9	n/a	n/a	n/a
33.125923	2	cue_nonsocial_low	n/a	16	-9	n/a	n/a	n/a
40.768265	2	cue_social	n/a	16	-9	n/a	n/a	n/a
40.768265	2	cue_social_low	n/a	16	-9	n/a	n/a	n/a
48.425890	2	cue_nonsocial	n/a	16	-9	n/a	n/a	n/a
48.425890	2	cue_nonsocial_low	n/a	16	-9	n/a	n/a	n/a
56.076717	2	cue_nonsocial	n/a	16	-9	n/a	n/a	n/a
56.076717	2	cue_nonsocial_low	n/a	16	-9	n/a	n/a	n/a
63.047997	2	cue_social	n/a	32	7	n/a	n/a	n/a
63.047997	2	cue_social_high	n/a	32	7	n/a	n/a	n/a
69.763320	2	cue_social	n/a	16	-9	n/a	n/a	n/a
69.763320	2	cue_social_low	n/a	16	-9	n/a	n/a	n/a
76.603780	2	cue_social	n/a	16	-9	n/a	n/a	n/a
76.603780	2	cue_social_low	n/a	16	-9	n/a	n/a	n/a
83.426350	2	cue_nonsocial	n/a	16	-9	n/a	n/a	n/a
83.426350	2	cue_nonsocial_low	n/a	16	-9	n/a	n/a	n/a
94.293200	2	cue_nonsocial	n/a	32	7	n/a	n/a	n/a
94.293200	2	cue_nonsocial_high	n/a	32	7	n/a	n/a	n/a
101.147970	2	cue_social	n/a	32	7	n/a	n/a	n/a
101.147970	2	cue_social_high	n/a	32	7	n/a	n/a	n/a
107.959900	2	cue_nonsocial	n/a	32	7	n/a	n/a	n/a
107.959900	2	cue_nonsocial_high	n/a	32	7	n/a	n/a	n/a
117.227380	2	cue_social	n/a	16	-9	n/a	n/a	n/a
117.227380	2	cue_social_low	n/a	16	-9	n/a	n/a	n/a
126.493965	2	cue_nonsocial	n/a	32	7	n/a	n/a	n/a
126.493965	2	cue_nonsocial_high	n/a	32	7	n/a	n/a	n/a
134.241200	2	cue_social	n/a	16	-9	n/a	n/a	n/a
134.241200	2	cue_social_low	n/a	16	-9	n/a	n/a	n/a
140.976700	2	cue_nonsocial	n/a	16	-9	n/a	n/a	n/a
140.976700	2	cue_nonsocial_low	n/a	16	-9	n/a	n/a	n/a
147.810360	2	cue_nonsocial	n/a	32	7	n/a	n/a	n/a
147.810360	2	cue_nonsocial_high	n/a	32	7	n/a	n/a	n/a
155.460390	2	cue_nonsocial	n/a	16	-9	n/a	n/a	n/a
155.460390	2	cue_nonsocial_low	n/a	16	-9	n/a	n/a	n/a
163.104100	2	cue_social	n/a	16	-9	n/a	n/a	n/a
163.104100	2	cue_social_low	n/a	16	-9	n/a	n/a	n/a
172.373210	2	cue_social	n/a	32	7	n/a	n/a	n/a
172.373210	2	cue_social_high	n/a	32	7	n/a	n/a	n/a
180.054440	2	cue_social	n/a	32	7	n/a	n/a	n/a
180.054440	2	cue_social_high	n/a	32	7	n/a	n/a	n/a
189.276630	2	cue_nonsocial	n/a	32	7	n/a	n/a	n/a
189.276630	2	cue_nonsocial_high	n/a	32	7	n/a	n/a	n/a
196.116320	2	cue_social	n/a	32	7	n/a	n/a	n/a
196.116320	2	cue_social_high	n/a	32	7	n/a	n/a	n/a
202.985800	2	cue_social	n/a	32	7	n/a	n/a	n/a
202.985800	2	cue_social_high	n/a	32	7	n/a	n/a	n/a
209.931840	2	cue_social	n/a	32	7	n/a	n/a	n/a
209.931840	2	cue_social_high	n/a	32	7	n/a	n/a	n/a
216.644850	2	cue_social	n/a	32	7	n/a	n/a	n/a
216.644850	2	cue_social_high	n/a	32	7	n/a	n/a	n/a
223.442260	2	cue_nonsocial	n/a	32	7	n/a	n/a	n/a
223.442260	2	cue_nonsocial_high	n/a	32	7	n/a	n/a	n/a
230.366380	2	cue_social	n/a	32	7	n/a	n/a	n/a
230.366380	2	cue_social_high	n/a	32	7	n/a	n/a	n/a
237.206090	2	cue_social	n/a	32	7	n/a	n/a	n/a
237.206090	2	cue_social_high	n/a	32	7	n/a	n/a	n/a
244.758880	2	cue_nonsocial	n/a	32	7	n/a	n/a	n/a
244.758880	2	cue_nonsocial_high	n/a	32	7	n/a	n/a	n/a
252.493740	2	cue_social	n/a	16	-9	n/a	n/a	n/a
252.493740	2	cue_social_low	n/a	16	-9	n/a	n/a	n/a
259.242740	2	cue_nonsocial	n/a	32	7	n/a	n/a	n/a
259.242740	2	cue_nonsocial_high	n/a	32	7	n/a	n/a	n/a
266.075680	2	cue_nonsocial	n/a	32	7	n/a	n/a	n/a
266.075680	2	cue_nonsocial_high	n/a	32	7	n/a	n/a	n/a
273.030670	2	cue_social	n/a	16	-9	n/a	n/a	n/a
273.030670	2	cue_social_low	n/a	16	-9	n/a	n/a	n/a
280.645300	2	cue_social	n/a	32	7	n/a	n/a	n/a
280.645300	2	cue_social_high	n/a	32	7	n/a	n/a	n/a
291.425380	2	cue_nonsocial	n/a	16	-9	n/a	n/a	n/a
291.425380	2	cue_nonsocial_low	n/a	16	-9	n/a	n/a	n/a
300.752380	2	cue_social	n/a	16	-9	n/a	n/a	n/a
300.752380	2	cue_social_low	n/a	16	-9	n/a	n/a	n/a
307.616670	2	cue_social	n/a	32	7	n/a	n/a	n/a
307.616670	2	cue_social_high	n/a	32	7	n/a	n/a	n/a
315.159580	2	cue_nonsocial	n/a	32	7	n/a	n/a	n/a
315.159580	2	cue_nonsocial_high	n/a	32	7	n/a	n/a	n/a
322.809170	2	cue_nonsocial	n/a	16	-9	n/a	n/a	n/a
322.809170	2	cue_nonsocial_low	n/a	16	-9	n/a	n/a	n/a
329.744140	2	cue_social	n/a	16	-9	n/a	n/a	n/a
329.744140	2	cue_social_low	n/a	16	-9	n/a	n/a	n/a
337.291720	2	cue_nonsocial	n/a	16	-9	n/a	n/a	n/a
337.291720	2	cue_nonsocial_low	n/a	16	-9	n/a	n/a	n/a
346.640400	2	cue_social	n/a	32	7	n/a	n/a	n/a
346.640400	2	cue_social_high	n/a	32	7	n/a	n/a	n/a
353.500640	2	cue_social	n/a	16	-9	n/a	n/a	n/a
353.500640	2	cue_social_low	n/a	16	-9	n/a	n/a	n/a
364.259740	2	cue_nonsocial	n/a	16	-9	n/a	n/a	n/a
364.259740	2	cue_nonsocial_low	n/a	16	-9	n/a	n/a	n/a
371.092770	2	cue_nonsocial	n/a	16	-9	n/a	n/a	n/a
371.092770	2	cue_nonsocial_low	n/a	16	-9	n/a	n/a	n/a
6.515535	3.766946	missed_trial	3.766946	32.000000	n/a	n/a	n/a	n/a
13.365353	3.766946	missed_trial	3.766946	32.000000	n/a	n/a	n/a	n/a
22.631792	3.766946	missed_trial	3.766946	32.000000	n/a	n/a	n/a	n/a
35.132004	1.833311	dec_nonsocial_choice	1.833311	16.000000	n/a	0	0	-2.372159e-01
35.132004	1.833311	dec_choice	1.833311	16.000000	n/a	0	0	-2.468750e-01
35.132004	1.833311	dec_nonsocial_reject	1.833311	16.000000	n/a	0	0	-6.114130e-02
35.132004	1.833311	dec_reject	1.833311	16.000000	n/a	0	0	-6.818182e-02
35.132004	1.833311	dec_nonsocial_reject_low	1.833311	16.000000	n/a	1	-5.468750e-02	-1.171875e-01
42.781994	1.600054	dec_social_choice	1.600054	16.000000	n/a	8	2.627841e-01	2.627841e-01
42.781994	1.600054	dec_choice	1.600054	16.000000	n/a	8	2.708333e-01	2.708333e-01
42.781994	1.600054	dec_social_accept	1.600054	16.000000	n/a	8	1.383929e-01	1.383929e-01
42.781994	1.600054	dec_accept	1.600054	16.000000	n/a	8	1.588542e-01	1.588542e-01
42.781994	1.600054	dec_social_accept_high	1.600054	16.000000	n/a	8	2.708333e-01	2.708333e-01
50.432888	0.149101	dec_nonsocial_choice	0.149101	16.000000	n/a	8	2.627841e-01	2.627841e-01
50.432888	0.149101	dec_choice	0.149101	16.000000	n/a	8	2.531250e-01	2.531250e-01
50.432888	0.149101	dec_nonsocial_accept	0.149101	16.000000	n/a	8	1.383929e-01	1.383929e-01
50.432888	0.149101	dec_accept	0.149101	16.000000	n/a	8	1.111111e-01	1.111111e-01
50.432888	0.149101	dec_nonsocial_accept_high	0.149101	16.000000	n/a	8	1.588542e-01	1.588542e-01
58.082180	3.766946	missed_trial	3.766946	16.000000	n/a	n/a	n/a	n/a
64.930920	1.967491	dec_social_choice	1.967491	32.000000	n/a	16	2.627841e-01	2.627841e-01
64.930920	1.967491	dec_choice	1.967491	32.000000	n/a	16	2.708333e-01	2.708333e-01
64.930920	1.967491	dec_social_accept	1.967491	32.000000	n/a	16	1.383929e-01	1.383929e-01
64.930920	1.967491	dec_accept	1.967491	32.000000	n/a	16	1.588542e-01	1.588542e-01
64.930920	1.967491	dec_social_high	1.967491	32.000000	n/a	16	2.708333e-01	2.708333e-01
64.930920	1.967491	dec_social_accept_high	1.967491	32.000000	n/a	16	2.708333e-01	2.708333e-01
71.765400	1.849589	dec_social_choice	1.849589	16.000000	n/a	0	0	-2.372159e-01
71.765400	1.849589	dec_choice	1.849589	16.000000	n/a	0	0	-2.291667e-01
71.765400	1.849589	dec_social_reject	1.849589	16.000000	n/a	0	0	1.358696e-03
71.765400	1.849589	dec_reject	1.849589	16.000000	n/a	0	0	7.812500e-03
71.765400	1.849589	dec_social_low	1.849589	16.000000	n/a	0	-2.291667e-01	-2.291667e-01
71.765400	1.849589	dec_social_reject_low	1.849589	16.000000	n/a	2	-1.041667e-01	-2.291667e-01
78.598040	2.133881	dec_social_choice	2.133881	16.000000	n/a	0	0	-2.372159e-01
78.598040	2.133881	dec_choice	2.133881	16.000000	n/a	0	0	-2.291667e-01
78.598040	2.133881	dec_social_reject	2.133881	16.000000	n/a	0	0	3.763587e-01
78.598040	2.133881	dec_reject	2.133881	16.000000	n/a	0	0	3.828125e-01
78.598040	2.133881	dec_social_low	2.133881	16.000000	n/a	0	-2.291667e-01	-2.291667e-01
78.598040	2.133881	dec_social_reject_low	2.133881	16.000000	n/a	8	2.708333e-01	-2.291667e-01
85.432070	2.200035	dec_nonsocial_choice	2.200035	16.000000	n/a	0	0	-2.372159e-01
85.432070	2.200035	dec_choice	2.200035	16.000000	n/a	0	0	-2.468750e-01
85.432070	2.200035	dec_nonsocial_reject	2.200035	16.000000	n/a	0	0	3.763587e-01
85.432070	2.200035	dec_reject	2.200035	16.000000	n/a	0	0	3.693182e-01
85.432070	2.200035	dec_nonsocial_reject_low	2.200035	16.000000	n/a	8	3.828125e-01	-1.171875e-01
96.299090	1.915411	dec_nonsocial_choice	1.915411	32.000000	n/a	0	0	-2.372159e-01
96.299090	1.915411	dec_choice	1.915411	32.000000	n/a	0	0	-2.468750e-01
96.299090	1.915411	dec_nonsocial_reject	1.915411	32.000000	n/a	0	0	-2.989130e-02
96.299090	1.915411	dec_reject	1.915411	32.000000	n/a	0	0	-3.693182e-02
96.299090	1.915411	dec_nonsocial_reject_low	1.915411	32.000000	n/a	3	-2.343750e-02	-1.171875e-01
103.131870	1.549929	dec_social_choice	1.549929	32.000000	n/a	0	0	-2.372159e-01
103.131870	1.549929	dec_choice	1.549929	32.000000	n/a	0	0	-2.291667e-01
103.131870	1.549929	dec_social_reject	1.549929	32.000000	n/a	0	0	-2.989130e-02
103.131870	1.549929	dec_reject	1.549929	32.000000	n/a	0	0	-2.343750e-02
103.131870	1.549929	dec_social_reject_low	1.549929	32.000000	n/a	3	-1.354167e-01	-2.291667e-01
109.965996	1.765344	dec_nonsocial_choice	1.765344	32.000000	n/a	0	0	-2.372159e-01
109.965996	1.765344	dec_choice	1.765344	32.000000	n/a	0	0	-2.468750e-01
109.965996	1.765344	dec_nonsocial_reject	1.765344	32.000000	n/a	0	0	-6.114130e-02
109.965996	1.765344	dec_reject	1.765344	32.000000	n/a	0	0	-6.818182e-02
109.965996	1.765344	dec_nonsocial_low	1.765344	32.000000	n/a	0	-2.468750e-01	-2.468750e-01
109.965996	1.765344	dec_nonsocial_reject_low	1.765344	32.000000	n/a	2	-6.818182e-02	-1.306818e-01
119.231880	1.599313	dec_social_choice	1.599313	16.000000	n/a	4	1.278409e-02	1.278409e-02
119.231880	1.599313	dec_choice	1.599313	16.000000	n/a	4	2.083333e-02	2.083333e-02
119.231880	1.599313	dec_social_accept	1.599313	16.000000	n/a	4	-1.116071e-01	-1.116071e-01
119.231880	1.599313	dec_accept	1.599313	16.000000	n/a	4	-9.114583e-02	-9.114583e-02
119.231880	1.599313	dec_social_high	1.599313	16.000000	n/a	4	2.083333e-02	2.083333e-02
119.231880	1.599313	dec_social_accept_high	1.599313	16.000000	n/a	4	2.083333e-02	2.083333e-02
128.499240	1.249006	dec_nonsocial_choice	1.249006	32.000000	n/a	0	0	-2.372159e-01
128.499240	1.249006	dec_choice	1.249006	32.000000	n/a	0	0	-2.468750e-01
128.499240	1.249006	dec_nonsocial_reject	1.249006	32.000000	n/a	0	0	-6.114130e-02
128.499240	1.249006	dec_reject	1.249006	32.000000	n/a	0	0	-6.818182e-02
128.499240	1.249006	dec_nonsocial_reject_low	1.249006	32.000000	n/a	2	-5.468750e-02	-1.171875e-01
136.148360	1.382956	dec_social_choice	1.382956	16.000000	n/a	0	0	-2.372159e-01
136.148360	1.382956	dec_choice	1.382956	16.000000	n/a	0	0	-2.291667e-01
136.148360	1.382956	dec_social_reject	1.382956	16.000000	n/a	0	0	-6.114130e-02
136.148360	1.382956	dec_reject	1.382956	16.000000	n/a	0	0	-5.468750e-02
136.148360	1.382956	dec_social_low	1.382956	16.000000	n/a	0	-2.291667e-01	-2.291667e-01
136.148360	1.382956	dec_social_reject_low	1.382956	16.000000	n/a	1	-1.666667e-01	-2.291667e-01
142.981030	2.650656	dec_nonsocial_choice	2.650656	16.000000	n/a	4	1.278409e-02	1.278409e-02
142.981030	2.650656	dec_choice	2.650656	16.000000	n/a	4	3.125000e-03	3.125000e-03
142.981030	2.650656	dec_nonsocial_accept	2.650656	16.000000	n/a	4	-1.116071e-01	-1.116071e-01
142.981030	2.650656	dec_accept	2.650656	16.000000	n/a	4	-1.388889e-01	-1.388889e-01
142.981030	2.650656	dec_nonsocial_accept_high	2.650656	16.000000	n/a	4	-9.114583e-02	-9.114583e-02
149.815490	1.966002	dec_nonsocial_choice	1.966002	32.000000	n/a	0	0	-2.372159e-01
149.815490	1.966002	dec_choice	1.966002	32.000000	n/a	0	0	-2.468750e-01
149.815490	1.966002	dec_nonsocial_reject	1.966002	32.000000	n/a	0	0	-2.989130e-02
149.815490	1.966002	dec_reject	1.966002	32.000000	n/a	0	0	-3.693182e-02
149.815490	1.966002	dec_nonsocial_reject_low	1.966002	32.000000	n/a	3	-2.343750e-02	-1.171875e-01
157.464370	1.783818	dec_nonsocial_choice	1.783818	16.000000	n/a	4	1.278409e-02	1.278409e-02
157.464370	1.783818	dec_choice	1.783818	16.000000	n/a	4	3.125000e-03	3.125000e-03
157.464370	1.783818	dec_nonsocial_accept	1.783818	16.000000	n/a	4	-1.116071e-01	-1.116071e-01
157.464370	1.783818	dec_accept	1.783818	16.000000	n/a	4	-1.388889e-01	-1.388889e-01
157.464370	1.783818	dec_nonsocial_accept_high	1.783818	16.000000	n/a	4	-9.114583e-02	-9.114583e-02
165.115190	1.116205	dec_social_choice	1.116205	16.000000	n/a	0	0	-2.372159e-01
165.115190	1.116205	dec_choice	1.116205	16.000000	n/a	0	0	-2.291667e-01
165.115190	1.116205	dec_social_reject	1.116205	16.000000	n/a	0	0	-6.114130e-02
165.115190	1.116205	dec_reject	1.116205	16.000000	n/a	0	0	-5.468750e-02
165.115190	1.116205	dec_social_reject_low	1.116205	16.000000	n/a	1	-1.666667e-01	-2.291667e-01
174.380860	1.550826	dec_social_choice	1.550826	32.000000	n/a	0	0	-2.372159e-01
174.380860	1.550826	dec_choice	1.550826	32.000000	n/a	0	0	-2.291667e-01
174.380860	1.550826	dec_social_reject	1.550826	32.000000	n/a	0	0	-6.114130e-02
174.380860	1.550826	dec_reject	1.550826	32.000000	n/a	0	0	-5.468750e-02
174.380860	1.550826	dec_social_low	1.550826	32.000000	n/a	0	-2.291667e-01	-2.291667e-01
174.380860	1.550826	dec_social_reject_low	1.550826	32.000000	n/a	2	-1.666667e-01	-2.291667e-01
182.031250	0.966692	dec_social_choice	0.966692	32.000000	n/a	8	1.278409e-02	1.278409e-02
182.031250	0.966692	dec_choice	0.966692	32.000000	n/a	8	2.083333e-02	2.083333e-02
182.031250	0.966692	dec_social_accept	0.966692	32.000000	n/a	8	-1.116071e-01	-1.116071e-01
182.031250	0.966692	dec_accept	0.966692	32.000000	n/a	8	-9.114583e-02	-9.114583e-02
182.031250	0.966692	dec_social_accept_high	0.966692	32.000000	n/a	8	2.083333e-02	2.083333e-02
191.281160	1.500051	dec_nonsocial_choice	1.500051	32.000000	n/a	8	1.278409e-02	1.278409e-02
191.281160	1.500051	dec_choice	1.500051	32.000000	n/a	8	3.125000e-03	3.125000e-03
191.281160	1.500051	dec_nonsocial_accept	1.500051	32.000000	n/a	8	-1.116071e-01	-1.116071e-01
191.281160	1.500051	dec_accept	1.500051	32.000000	n/a	8	-1.388889e-01	-1.388889e-01
191.281160	1.500051	dec_nonsocial_high	1.500051	32.000000	n/a	8	3.125000e-03	3.125000e-03
191.281160	1.500051	dec_nonsocial_accept_high	1.500051	32.000000	n/a	8	-1.388889e-01	-1.388889e-01
198.115360	1.232810	dec_social_choice	1.232810	32.000000	n/a	8	1.278409e-02	1.278409e-02
198.115360	1.232810	dec_choice	1.232810	32.000000	n/a	8	2.083333e-02	2.083333e-02
198.115360	1.232810	dec_social_accept	1.232810	32.000000	n/a	8	-1.116071e-01	-1.116071e-01
198.115360	1.232810	dec_accept	1.232810	32.000000	n/a	8	-9.114583e-02	-9.114583e-02
198.115360	1.232810	dec_social_high	1.232810	32.000000	n/a	8	2.083333e-02	2.083333e-02
198.115360	1.232810	dec_social_accept_high	1.232810	32.000000	n/a	8	2.083333e-02	2.083333e-02
204.948700	1.515676	dec_social_choice	1.515676	32.000000	n/a	16	2.627841e-01	2.627841e-01
204.948700	1.515676	dec_choice	1.515676	32.000000	n/a	16	2.708333e-01	2.708333e-01
204.948700	1.515676	dec_social_accept	1.515676	32.000000	n/a	16	1.383929e-01	1.383929e-01
204.948700	1.515676	dec_accept	1.515676	32.000000	n/a	16	1.588542e-01	1.588542e-01
204.948700	1.515676	dec_social_high	1.515676	32.000000	n/a	16	2.708333e-01	2.708333e-01
204.948700	1.515676	dec_social_accept_high	1.515676	32.000000	n/a	16	2.708333e-01	2.708333e-01
211.781900	1.449390	dec_social_choice	1.449390	32.000000	n/a	8	1.278409e-02	1.278409e-02
211.781900	1.449390	dec_choice	1.449390	32.000000	n/a	8	2.083333e-02	2.083333e-02
211.781900	1.449390	dec_social_accept	1.449390	32.000000	n/a	8	-1.116071e-01	-1.116071e-01
211.781900	1.449390	dec_accept	1.449390	32.000000	n/a	8	-9.114583e-02	-9.114583e-02
211.781900	1.449390	dec_social_accept_high	1.449390	32.000000	n/a	8	2.083333e-02	2.083333e-02
218.614780	1.650048	dec_social_choice	1.650048	32.000000	n/a	0	0	-2.372159e-01
218.614780	1.650048	dec_choice	1.650048	32.000000	n/a	0	0	-2.291667e-01
218.614780	1.650048	dec_social_reject	1.650048	32.000000	n/a	0	0	-2.989130e-02
218.614780	1.650048	dec_reject	1.650048	32.000000	n/a	0	0	-2.343750e-02
218.614780	1.650048	dec_social_reject_low	1.650048	32.000000	n/a	3	-1.354167e-01	-2.291667e-01
225.447850	1.583719	dec_nonsocial_choice	1.583719	32.000000	n/a	16	2.627841e-01	2.627841e-01
225.447850	1.583719	dec_choice	1.583719	32.000000	n/a	16	2.531250e-01	2.531250e-01
225.447850	1.583719	dec_nonsocial_accept	1.583719	32.000000	n/a	16	1.383929e-01	1.383929e-01
225.447850	1.583719	dec_accept	1.583719	32.000000	n/a	16	1.111111e-01	1.111111e-01
225.447850	1.583719	dec_nonsocial_high	1.583719	32.000000	n/a	16	2.531250e-01	2.531250e-01
225.447850	1.583719	dec_nonsocial_accept_high	1.583719	32.000000	n/a	16	1.111111e-01	1.111111e-01
232.281000	1.366785	dec_social_choice	1.366785	32.000000	n/a	0	0	-2.372159e-01
232.281000	1.366785	dec_choice	1.366785	32.000000	n/a	0	0	-2.291667e-01
232.281000	1.366785	dec_social_reject	1.366785	32.000000	n/a	0	0	-6.114130e-02
232.281000	1.366785	dec_reject	1.366785	32.000000	n/a	0	0	-5.468750e-02
232.281000	1.366785	dec_social_reject_low	1.366785	32.000000	n/a	2	-1.666667e-01	-2.291667e-01
239.115660	1.382448	dec_social_choice	1.382448	32.000000	n/a	8	1.278409e-02	1.278409e-02
239.115660	1.382448	dec_choice	1.382448	32.000000	n/a	8	2.083333e-02	2.083333e-02
239.115660	1.382448	dec_social_accept	1.382448	32.000000	n/a	8	-1.116071e-01	-1.116071e-01
239.115660	1.382448	dec_accept	1.382448	32.000000	n/a	8	-9.114583e-02	-9.114583e-02
239.115660	1.382448	dec_social_high	1.382448	32.000000	n/a	8	2.083333e-02	2.083333e-02
239.115660	1.382448	dec_social_accept_high	1.382448	32.000000	n/a	8	2.083333e-02	2.083333e-02
246.765140	1.365508	dec_nonsocial_choice	1.365508	32.000000	n/a	16	2.627841e-01	2.627841e-01
246.765140	1.365508	dec_choice	1.365508	32.000000	n/a	16	2.531250e-01	2.531250e-01
246.765140	1.365508	dec_nonsocial_accept	1.365508	32.000000	n/a	16	1.383929e-01	1.383929e-01
246.765140	1.365508	dec_accept	1.365508	32.000000	n/a	16	1.111111e-01	1.111111e-01
246.765140	1.365508	dec_nonsocial_accept_high	1.365508	32.000000	n/a	16	1.588542e-01	1.588542e-01
254.414350	1.467111	dec_social_choice	1.467111	16.000000	n/a	4	1.278409e-02	1.278409e-02
254.414350	1.467111	dec_choice	1.467111	16.000000	n/a	4	2.083333e-02	2.083333e-02
254.414350	1.467111	dec_social_accept	1.467111	16.000000	n/a	4	-1.116071e-01	-1.116071e-01
254.414350	1.467111	dec_accept	1.467111	16.000000	n/a	4	-9.114583e-02	-9.114583e-02
254.414350	1.467111	dec_social_accept_high	1.467111	16.000000	n/a	4	2.083333e-02	2.083333e-02
261.248870	1.499208	dec_nonsocial_choice	1.499208	32.000000	n/a	0	0	-2.372159e-01
261.248870	1.499208	dec_choice	1.499208	32.000000	n/a	0	0	-2.468750e-01
261.248870	1.499208	dec_nonsocial_reject	1.499208	32.000000	n/a	0	0	-6.114130e-02
261.248870	1.499208	dec_reject	1.499208	32.000000	n/a	0	0	-6.818182e-02
261.248870	1.499208	dec_nonsocial_reject_low	1.499208	32.000000	n/a	2	-5.468750e-02	-1.171875e-01
268.081360	1.499952	dec_nonsocial_choice	1.499952	32.000000	n/a	8	1.278409e-02	1.278409e-02
268.081360	1.499952	dec_choice	1.499952	32.000000	n/a	8	3.125000e-03	3.125000e-03
268.081360	1.499952	dec_nonsocial_accept	1.499952	32.000000	n/a	8	-1.116071e-01	-1.116071e-01
268.081360	1.499952	dec_accept	1.499952	32.000000	n/a	8	-1.388889e-01	-1.388889e-01
268.081360	1.499952	dec_nonsocial_accept_high	1.499952	32.000000	n/a	8	-9.114583e-02	-9.114583e-02
274.914370	1.317154	dec_social_choice	1.317154	16.000000	n/a	0	0	-2.372159e-01
274.914370	1.317154	dec_choice	1.317154	16.000000	n/a	0	0	-2.291667e-01
274.914370	1.317154	dec_social_reject	1.317154	16.000000	n/a	0	0	-6.114130e-02
274.914370	1.317154	dec_reject	1.317154	16.000000	n/a	0	0	-5.468750e-02
274.914370	1.317154	dec_social_reject_low	1.317154	16.000000	n/a	1	-1.666667e-01	-2.291667e-01
282.564400	1.650202	dec_social_choice	1.650202	32.000000	n/a	3	-1.434659e-01	-1.434659e-01
282.564400	1.650202	dec_choice	1.650202	32.000000	n/a	3	-1.354167e-01	-1.354167e-01
282.564400	1.650202	dec_social_accept	1.650202	32.000000	n/a	3	-2.678571e-01	-2.678571e-01
282.564400	1.650202	dec_accept	1.650202	32.000000	n/a	3	-2.473958e-01	-2.473958e-01
282.564400	1.650202	dec_social_low	1.650202	32.000000	n/a	3	-1.354167e-01	-1.354167e-01
282.564400	1.650202	dec_social_accept_low	1.650202	32.000000	n/a	3	-1.354167e-01	-1.354167e-01
293.431400	1.600238	dec_nonsocial_choice	1.600238	16.000000	n/a	0	0	-2.372159e-01
293.431400	1.600238	dec_choice	1.600238	16.000000	n/a	0	0	-2.468750e-01
293.431400	1.600238	dec_nonsocial_reject	1.600238	16.000000	n/a	0	0	-6.114130e-02
293.431400	1.600238	dec_reject	1.600238	16.000000	n/a	0	0	-6.818182e-02
293.431400	1.600238	dec_nonsocial_low	1.600238	16.000000	n/a	0	-2.468750e-01	-2.468750e-01
293.431400	1.600238	dec_nonsocial_reject_low	1.600238	16.000000	n/a	1	-6.818182e-02	-1.306818e-01
302.680970	2.016876	dec_social_choice	2.016876	16.000000	n/a	0	0	-2.372159e-01
302.680970	2.016876	dec_choice	2.016876	16.000000	n/a	0	0	-2.291667e-01
302.680970	2.016876	dec_social_reject	2.016876	16.000000	n/a	0	0	-6.114130e-02
302.680970	2.016876	dec_reject	2.016876	16.000000	n/a	0	0	-5.468750e-02
302.680970	2.016876	dec_social_low	2.016876	16.000000	n/a	0	-2.291667e-01	-2.291667e-01
302.680970	2.016876	dec_social_reject_low	2.016876	16.000000	n/a	1	-1.666667e-01	-2.291667e-01
309.514470	1.083871	dec_social_choice	1.083871	32.000000	n/a	16	2.627841e-01	2.627841e-01
309.514470	1.083871	dec_choice	1.083871	32.000000	n/a	16	2.708333e-01	2.708333e-01
309.514470	1.083871	dec_social_accept	1.083871	32.000000	n/a	16	1.383929e-01	1.383929e-01
309.514470	1.083871	dec_accept	1.083871	32.000000	n/a	16	1.588542e-01	1.588542e-01
309.514470	1.083871	dec_social_accept_high	1.083871	32.000000	n/a	16	2.708333e-01	2.708333e-01
317.163850	1.600783	dec_nonsocial_choice	1.600783	32.000000	n/a	0	0	-2.372159e-01
317.163850	1.600783	dec_choice	1.600783	32.000000	n/a	0	0	-2.468750e-01
317.163850	1.600783	dec_nonsocial_reject	1.600783	32.000000	n/a	0	0	-6.114130e-02
317.163850	1.600783	dec_reject	1.600783	32.000000	n/a	0	0	-6.818182e-02
317.163850	1.600783	dec_nonsocial_reject_low	1.600783	32.000000	n/a	2	-5.468750e-02	-1.171875e-01
324.815500	1.598970	dec_nonsocial_choice	1.598970	16.000000	n/a	8	2.627841e-01	2.627841e-01
324.815500	1.598970	dec_choice	1.598970	16.000000	n/a	8	2.531250e-01	2.531250e-01
324.815500	1.598970	dec_nonsocial_accept	1.598970	16.000000	n/a	8	1.383929e-01	1.383929e-01
324.815500	1.598970	dec_accept	1.598970	16.000000	n/a	8	1.111111e-01	1.111111e-01
324.815500	1.598970	dec_nonsocial_high	1.598970	16.000000	n/a	8	2.531250e-01	2.531250e-01
324.815500	1.598970	dec_nonsocial_accept_high	1.598970	16.000000	n/a	8	1.111111e-01	1.111111e-01
331.648860	1.765668	dec_social_choice	1.765668	16.000000	n/a	8	2.627841e-01	2.627841e-01
331.648860	1.765668	dec_choice	1.765668	16.000000	n/a	8	2.708333e-01	2.708333e-01
331.648860	1.765668	dec_social_accept	1.765668	16.000000	n/a	8	1.383929e-01	1.383929e-01
331.648860	1.765668	dec_accept	1.765668	16.000000	n/a	8	1.588542e-01	1.588542e-01
331.648860	1.765668	dec_social_accept_high	1.765668	16.000000	n/a	8	2.708333e-01	2.708333e-01
339.297970	1.965794	dec_nonsocial_choice	1.965794	16.000000	n/a	8	2.627841e-01	2.627841e-01
339.297970	1.965794	dec_choice	1.965794	16.000000	n/a	8	2.531250e-01	2.531250e-01
339.297970	1.965794	dec_nonsocial_accept	1.965794	16.000000	n/a	8	1.383929e-01	1.383929e-01
339.297970	1.965794	dec_accept	1.965794	16.000000	n/a	8	1.111111e-01	1.111111e-01
339.297970	1.965794	dec_nonsocial_accept_high	1.965794	16.000000	n/a	8	1.588542e-01	1.588542e-01
348.563900	2.034734	dec_social_choice	2.034734	32.000000	n/a	0	0	-2.372159e-01
348.563900	2.034734	dec_choice	2.034734	32.000000	n/a	0	0	-2.291667e-01
348.563900	2.034734	dec_social_reject	2.034734	32.000000	n/a	0	0	-2.989130e-02
348.563900	2.034734	dec_reject	2.034734	32.000000	n/a	0	0	-2.343750e-02
348.563900	2.034734	dec_social_low	2.034734	32.000000	n/a	0	-2.291667e-01	-2.291667e-01
348.563900	2.034734	dec_social_reject_low	2.034734	32.000000	n/a	3	-1.354167e-01	-2.291667e-01
355.397860	1.316521	dec_social_choice	1.316521	16.000000	n/a	0	0	-2.372159e-01
355.397860	1.316521	dec_choice	1.316521	16.000000	n/a	0	0	-2.291667e-01
355.397860	1.316521	dec_social_reject	1.316521	16.000000	n/a	0	0	1.358696e-03
355.397860	1.316521	dec_reject	1.316521	16.000000	n/a	0	0	7.812500e-03
355.397860	1.316521	dec_social_reject_low	1.316521	16.000000	n/a	2	-1.041667e-01	-2.291667e-01
366.263980	1.600526	dec_nonsocial_choice	1.600526	16.000000	n/a	0	0	-2.372159e-01
366.263980	1.600526	dec_choice	1.600526	16.000000	n/a	0	0	-2.468750e-01
366.263980	1.600526	dec_nonsocial_reject	1.600526	16.000000	n/a	0	0	1.263587e-01
366.263980	1.600526	dec_reject	1.600526	16.000000	n/a	0	0	1.193182e-01
366.263980	1.600526	dec_nonsocial_reject_low	1.600526	16.000000	n/a	4	1.328125e-01	-1.171875e-01
373.098900	1.165176	dec_nonsocial_choice	1.165176	16.000000	n/a	0	0	-2.372159e-01
373.098900	1.165176	dec_choice	1.165176	16.000000	n/a	0	0	-2.468750e-01
373.098900	1.165176	dec_nonsocial_reject	1.165176	16.000000	n/a	0	0	1.358696e-03
373.098900	1.165176	dec_reject	1.165176	16.000000	n/a	0	0	-5.681818e-03
373.098900	1.165176	dec_nonsocial_reject_low	1.165176	16.000000	n/a	2	7.812500e-03	-1.171875e-01
