onset	duration	trial_type	response_time	Endowment	Endowment_pmod	Decision	Decision_pmod	Offer_pmod
4.573455	2	cue_social	n/a	32	9	n/a	n/a	n/a
4.573455	2	cue_social_high	n/a	32	7	n/a	n/a	n/a
15.452703	2	cue_social	n/a	16	-7	n/a	n/a	n/a
15.452703	2	cue_social_low	n/a	16	-9	n/a	n/a	n/a
22.206675	2	cue_nonsocial	n/a	16	-9	n/a	n/a	n/a
22.206675	2	cue_nonsocial_low	n/a	16	-7	n/a	n/a	n/a
29.039347	2	cue_nonsocial	n/a	32	7	n/a	n/a	n/a
29.039347	2	cue_nonsocial_high	n/a	32	9	n/a	n/a	n/a
36.689438	2	cue_nonsocial	n/a	16	-9	n/a	n/a	n/a
36.689438	2	cue_nonsocial_low	n/a	16	-7	n/a	n/a	n/a
43.522900	2	cue_nonsocial	n/a	32	7	n/a	n/a	n/a
43.522900	2	cue_nonsocial_high	n/a	32	9	n/a	n/a	n/a
52.832047	2	cue_social	n/a	32	9	n/a	n/a	n/a
52.832047	2	cue_social_high	n/a	32	7	n/a	n/a	n/a
60.468960	2	cue_social	n/a	16	-7	n/a	n/a	n/a
60.468960	2	cue_social_low	n/a	16	-9	n/a	n/a	n/a
68.056980	2	cue_nonsocial	n/a	32	7	n/a	n/a	n/a
68.056980	2	cue_nonsocial_high	n/a	32	9	n/a	n/a	n/a
75.776146	2	cue_social	n/a	16	-7	n/a	n/a	n/a
75.776146	2	cue_social_low	n/a	16	-9	n/a	n/a	n/a
84.989760	2	cue_nonsocial	n/a	16	-9	n/a	n/a	n/a
84.989760	2	cue_nonsocial_low	n/a	16	-7	n/a	n/a	n/a
92.689400	2	cue_social	n/a	16	-7	n/a	n/a	n/a
92.689400	2	cue_social_low	n/a	16	-9	n/a	n/a	n/a
99.535680	2	cue_social	n/a	16	-7	n/a	n/a	n/a
99.535680	2	cue_social_low	n/a	16	-9	n/a	n/a	n/a
106.371635	2	cue_social	n/a	32	9	n/a	n/a	n/a
106.371635	2	cue_social_high	n/a	32	7	n/a	n/a	n/a
115.634010	2	cue_social	n/a	16	-7	n/a	n/a	n/a
115.634010	2	cue_social_low	n/a	16	-9	n/a	n/a	n/a
124.897240	2	cue_social	n/a	16	-7	n/a	n/a	n/a
124.897240	2	cue_social_low	n/a	16	-9	n/a	n/a	n/a
131.656190	2	cue_nonsocial	n/a	16	-9	n/a	n/a	n/a
131.656190	2	cue_nonsocial_low	n/a	16	-7	n/a	n/a	n/a
138.489170	2	cue_nonsocial	n/a	16	-9	n/a	n/a	n/a
138.489170	2	cue_nonsocial_low	n/a	16	-7	n/a	n/a	n/a
145.322400	2	cue_nonsocial	n/a	32	7	n/a	n/a	n/a
145.322400	2	cue_nonsocial_high	n/a	32	9	n/a	n/a	n/a
152.155910	2	cue_nonsocial	n/a	16	-9	n/a	n/a	n/a
152.155910	2	cue_nonsocial_low	n/a	16	-7	n/a	n/a	n/a
158.993770	2	cue_nonsocial	n/a	16	-9	n/a	n/a	n/a
158.993770	2	cue_nonsocial_low	n/a	16	-7	n/a	n/a	n/a
166.701220	2	cue_social	n/a	32	9	n/a	n/a	n/a
166.701220	2	cue_social_high	n/a	32	7	n/a	n/a	n/a
173.472750	2	cue_nonsocial	n/a	32	7	n/a	n/a	n/a
173.472750	2	cue_nonsocial_high	n/a	32	9	n/a	n/a	n/a
180.305680	2	cue_nonsocial	n/a	16	-9	n/a	n/a	n/a
180.305680	2	cue_nonsocial_low	n/a	16	-7	n/a	n/a	n/a
187.220920	2	cue_social	n/a	32	9	n/a	n/a	n/a
187.220920	2	cue_social_high	n/a	32	7	n/a	n/a	n/a
194.772280	2	cue_nonsocial	n/a	32	7	n/a	n/a	n/a
194.772280	2	cue_nonsocial_high	n/a	32	9	n/a	n/a	n/a
204.038850	2	cue_nonsocial	n/a	32	7	n/a	n/a	n/a
204.038850	2	cue_nonsocial_high	n/a	32	9	n/a	n/a	n/a
211.758240	2	cue_social	n/a	16	-7	n/a	n/a	n/a
211.758240	2	cue_social_low	n/a	16	-9	n/a	n/a	n/a
219.396670	2	cue_social	n/a	16	-7	n/a	n/a	n/a
219.396670	2	cue_social_low	n/a	16	-9	n/a	n/a	n/a
226.981900	2	cue_nonsocial	n/a	32	7	n/a	n/a	n/a
226.981900	2	cue_nonsocial_high	n/a	32	9	n/a	n/a	n/a
234.721330	2	cue_social	n/a	16	-7	n/a	n/a	n/a
234.721330	2	cue_social_low	n/a	16	-9	n/a	n/a	n/a
241.519850	2	cue_social	n/a	32	9	n/a	n/a	n/a
241.519850	2	cue_social_high	n/a	32	7	n/a	n/a	n/a
248.336620	2	cue_social	n/a	32	9	n/a	n/a	n/a
248.336620	2	cue_social_high	n/a	32	7	n/a	n/a	n/a
255.938780	2	cue_nonsocial	n/a	32	7	n/a	n/a	n/a
255.938780	2	cue_nonsocial_high	n/a	32	9	n/a	n/a	n/a
262.856500	2	cue_social	n/a	16	-7	n/a	n/a	n/a
262.856500	2	cue_social_low	n/a	16	-9	n/a	n/a	n/a
272.038730	2	cue_nonsocial	n/a	32	7	n/a	n/a	n/a
272.038730	2	cue_nonsocial_high	n/a	32	9	n/a	n/a	n/a
278.942540	2	cue_social	n/a	32	9	n/a	n/a	n/a
278.942540	2	cue_social_high	n/a	32	7	n/a	n/a	n/a
289.738600	2	cue_nonsocial	n/a	32	7	n/a	n/a	n/a
289.738600	2	cue_nonsocial_high	n/a	32	9	n/a	n/a	n/a
296.599000	2	cue_social	n/a	32	9	n/a	n/a	n/a
296.599000	2	cue_social_high	n/a	32	7	n/a	n/a	n/a
305.884340	2	cue_social	n/a	16	-7	n/a	n/a	n/a
305.884340	2	cue_social_low	n/a	16	-9	n/a	n/a	n/a
312.655430	2	cue_nonsocial	n/a	32	7	n/a	n/a	n/a
312.655430	2	cue_nonsocial_high	n/a	32	9	n/a	n/a	n/a
319.488600	2	cue_nonsocial	n/a	16	-9	n/a	n/a	n/a
319.488600	2	cue_nonsocial_low	n/a	16	-7	n/a	n/a	n/a
326.375980	2	cue_social	n/a	16	-7	n/a	n/a	n/a
326.375980	2	cue_social_low	n/a	16	-9	n/a	n/a	n/a
333.213680	2	cue_social	n/a	16	-7	n/a	n/a	n/a
333.213680	2	cue_social_low	n/a	16	-9	n/a	n/a	n/a
345.638460	2	cue_nonsocial	n/a	32	7	n/a	n/a	n/a
345.638460	2	cue_nonsocial_high	n/a	32	9	n/a	n/a	n/a
353.288480	2	cue_nonsocial	n/a	32	7	n/a	n/a	n/a
353.288480	2	cue_nonsocial_high	n/a	32	9	n/a	n/a	n/a
360.122070	2	cue_nonsocial	n/a	16	-9	n/a	n/a	n/a
360.122070	2	cue_nonsocial_low	n/a	16	-7	n/a	n/a	n/a
367.025850	2	cue_social	n/a	32	9	n/a	n/a	n/a
367.025850	2	cue_social_high	n/a	32	7	n/a	n/a	n/a
6.512218	0.633811	dec_social_choice	0.633811	32.000000	n/a	3	-1.373698e-01	-1.373698e-01
6.512218	0.633811	dec_choice	0.633811	32.000000	n/a	3	-1.380208e-01	-1.380208e-01
6.512218	0.633811	dec_social_accept	0.633811	32.000000	n/a	3	-1.373698e-01	-1.373698e-01
6.512218	0.633811	dec_accept	0.633811	32.000000	n/a	3	-1.380208e-01	-1.380208e-01
6.512218	0.633811	dec_social_low	0.633811	32.000000	n/a	3	-1.380208e-01	-1.380208e-01
6.512218	0.633811	dec_social_accept_low	0.633811	32.000000	n/a	3	-1.380208e-01	-1.380208e-01
17.377897	0.650788	dec_social_choice	0.650788	16.000000	n/a	2	-1.061198e-01	-1.061198e-01
17.377897	0.650788	dec_choice	0.650788	16.000000	n/a	2	-1.067708e-01	-1.067708e-01
17.377897	0.650788	dec_social_accept	0.650788	16.000000	n/a	2	-1.061198e-01	-1.061198e-01
17.377897	0.650788	dec_accept	0.650788	16.000000	n/a	2	-1.067708e-01	-1.067708e-01
17.377897	0.650788	dec_social_accept_low	0.650788	16.000000	n/a	2	-1.067708e-01	-1.067708e-01
24.212896	0.565700	dec_nonsocial_choice	0.565700	16.000000	n/a	2	-1.061198e-01	-1.061198e-01
24.212896	0.565700	dec_choice	0.565700	16.000000	n/a	2	-1.054688e-01	-1.054688e-01
24.212896	0.565700	dec_nonsocial_accept	0.565700	16.000000	n/a	2	-1.061198e-01	-1.061198e-01
24.212896	0.565700	dec_accept	0.565700	16.000000	n/a	2	-1.054688e-01	-1.054688e-01
24.212896	0.565700	dec_nonsocial_accept_low	0.565700	16.000000	n/a	2	-1.067708e-01	-1.067708e-01
31.045927	0.382492	dec_nonsocial_choice	0.382492	32.000000	n/a	8	1.888021e-02	1.888021e-02
31.045927	0.382492	dec_choice	0.382492	32.000000	n/a	8	1.953125e-02	1.953125e-02
31.045927	0.382492	dec_nonsocial_accept	0.382492	32.000000	n/a	8	1.888021e-02	1.888021e-02
31.045927	0.382492	dec_accept	0.382492	32.000000	n/a	8	1.953125e-02	1.953125e-02
31.045927	0.382492	dec_nonsocial_high	0.382492	32.000000	n/a	8	1.953125e-02	1.953125e-02
31.045927	0.382492	dec_nonsocial_accept_high	0.382492	32.000000	n/a	8	1.953125e-02	1.953125e-02
38.696960	0.432285	dec_nonsocial_choice	0.432285	16.000000	n/a	8	2.688802e-01	2.688802e-01
38.696960	0.432285	dec_choice	0.432285	16.000000	n/a	8	2.695312e-01	2.695312e-01
38.696960	0.432285	dec_nonsocial_accept	0.432285	16.000000	n/a	8	2.688802e-01	2.688802e-01
38.696960	0.432285	dec_accept	0.432285	16.000000	n/a	8	2.695312e-01	2.695312e-01
38.696960	0.432285	dec_nonsocial_accept_high	0.432285	16.000000	n/a	8	2.682292e-01	2.682292e-01
45.528885	0.500130	dec_nonsocial_choice	0.500130	32.000000	n/a	3	-1.373698e-01	-1.373698e-01
45.528885	0.500130	dec_choice	0.500130	32.000000	n/a	3	-1.367188e-01	-1.367188e-01
45.528885	0.500130	dec_nonsocial_accept	0.500130	32.000000	n/a	3	-1.373698e-01	-1.373698e-01
45.528885	0.500130	dec_accept	0.500130	32.000000	n/a	3	-1.367188e-01	-1.367188e-01
45.528885	0.500130	dec_nonsocial_accept_low	0.500130	32.000000	n/a	3	-1.380208e-01	-1.380208e-01
54.778885	0.616448	dec_social_choice	0.616448	32.000000	n/a	8	1.888021e-02	1.888021e-02
54.778885	0.616448	dec_choice	0.616448	32.000000	n/a	8	1.822917e-02	1.822917e-02
54.778885	0.616448	dec_social_accept	0.616448	32.000000	n/a	8	1.888021e-02	1.888021e-02
54.778885	0.616448	dec_accept	0.616448	32.000000	n/a	8	1.822917e-02	1.822917e-02
54.778885	0.616448	dec_social_accept_high	0.616448	32.000000	n/a	8	1.822917e-02	1.822917e-02
62.428660	0.550421	dec_social_choice	0.550421	16.000000	n/a	4	1.888021e-02	1.888021e-02
62.428660	0.550421	dec_choice	0.550421	16.000000	n/a	4	1.822917e-02	1.822917e-02
62.428660	0.550421	dec_social_accept	0.550421	16.000000	n/a	4	1.888021e-02	1.888021e-02
62.428660	0.550421	dec_accept	0.550421	16.000000	n/a	4	1.822917e-02	1.822917e-02
62.428660	0.550421	dec_social_accept_high	0.550421	16.000000	n/a	4	1.822917e-02	1.822917e-02
70.079000	0.499941	dec_nonsocial_choice	0.499941	32.000000	n/a	3	-1.373698e-01	-1.373698e-01
70.079000	0.499941	dec_choice	0.499941	32.000000	n/a	3	-1.367188e-01	-1.367188e-01
70.079000	0.499941	dec_nonsocial_accept	0.499941	32.000000	n/a	3	-1.373698e-01	-1.373698e-01
70.079000	0.499941	dec_accept	0.499941	32.000000	n/a	3	-1.367188e-01	-1.367188e-01
70.079000	0.499941	dec_nonsocial_accept_low	0.499941	32.000000	n/a	3	-1.380208e-01	-1.380208e-01
77.728980	0.533550	dec_social_choice	0.533550	16.000000	n/a	2	-1.061198e-01	-1.061198e-01
77.728980	0.533550	dec_choice	0.533550	16.000000	n/a	2	-1.067708e-01	-1.067708e-01
77.728980	0.533550	dec_social_accept	0.533550	16.000000	n/a	2	-1.061198e-01	-1.061198e-01
77.728980	0.533550	dec_accept	0.533550	16.000000	n/a	2	-1.067708e-01	-1.067708e-01
77.728980	0.533550	dec_social_accept_low	0.533550	16.000000	n/a	2	-1.067708e-01	-1.067708e-01
86.995870	0.500149	dec_nonsocial_choice	0.500149	16.000000	n/a	4	1.888021e-02	1.888021e-02
86.995870	0.500149	dec_choice	0.500149	16.000000	n/a	4	1.953125e-02	1.953125e-02
86.995870	0.500149	dec_nonsocial_accept	0.500149	16.000000	n/a	4	1.888021e-02	1.888021e-02
86.995870	0.500149	dec_accept	0.500149	16.000000	n/a	4	1.953125e-02	1.953125e-02
86.995870	0.500149	dec_nonsocial_high	0.500149	16.000000	n/a	4	1.953125e-02	1.953125e-02
86.995870	0.500149	dec_nonsocial_accept_high	0.500149	16.000000	n/a	4	1.953125e-02	1.953125e-02
94.645760	0.465739	dec_social_choice	0.465739	16.000000	n/a	2	-1.061198e-01	-1.061198e-01
94.645760	0.465739	dec_choice	0.465739	16.000000	n/a	2	-1.067708e-01	-1.067708e-01
94.645760	0.465739	dec_social_accept	0.465739	16.000000	n/a	2	-1.061198e-01	-1.061198e-01
94.645760	0.465739	dec_accept	0.465739	16.000000	n/a	2	-1.067708e-01	-1.067708e-01
94.645760	0.465739	dec_social_accept_low	0.465739	16.000000	n/a	2	-1.067708e-01	-1.067708e-01
101.479810	0.582580	dec_social_choice	0.582580	16.000000	n/a	8	2.688802e-01	2.688802e-01
101.479810	0.582580	dec_choice	0.582580	16.000000	n/a	8	2.682292e-01	2.682292e-01
101.479810	0.582580	dec_social_accept	0.582580	16.000000	n/a	8	2.688802e-01	2.688802e-01
101.479810	0.582580	dec_accept	0.582580	16.000000	n/a	8	2.682292e-01	2.682292e-01
101.479810	0.582580	dec_social_high	0.582580	16.000000	n/a	8	2.682292e-01	2.682292e-01
101.479810	0.582580	dec_social_accept_high	0.582580	16.000000	n/a	8	2.682292e-01	2.682292e-01
108.311844	0.532976	dec_social_choice	0.532976	32.000000	n/a	8	1.888021e-02	1.888021e-02
108.311844	0.532976	dec_choice	0.532976	32.000000	n/a	8	1.822917e-02	1.822917e-02
108.311844	0.532976	dec_social_accept	0.532976	32.000000	n/a	8	1.888021e-02	1.888021e-02
108.311844	0.532976	dec_accept	0.532976	32.000000	n/a	8	1.822917e-02	1.822917e-02
108.311844	0.532976	dec_social_high	0.532976	32.000000	n/a	8	1.822917e-02	1.822917e-02
108.311844	0.532976	dec_social_accept_high	0.532976	32.000000	n/a	8	1.822917e-02	1.822917e-02
117.577790	0.484368	dec_social_choice	0.484368	16.000000	n/a	1	-1.686198e-01	-1.686198e-01
117.577790	0.484368	dec_choice	0.484368	16.000000	n/a	1	-1.692708e-01	-1.692708e-01
117.577790	0.484368	dec_social_accept	0.484368	16.000000	n/a	1	-1.686198e-01	-1.686198e-01
117.577790	0.484368	dec_accept	0.484368	16.000000	n/a	1	-1.692708e-01	-1.692708e-01
117.577790	0.484368	dec_social_low	0.484368	16.000000	n/a	1	-1.692708e-01	-1.692708e-01
117.577790	0.484368	dec_social_accept_low	0.484368	16.000000	n/a	1	-1.692708e-01	-1.692708e-01
126.828804	0.482554	dec_social_choice	0.482554	16.000000	n/a	8	2.688802e-01	2.688802e-01
126.828804	0.482554	dec_choice	0.482554	16.000000	n/a	8	2.682292e-01	2.682292e-01
126.828804	0.482554	dec_social_accept	0.482554	16.000000	n/a	8	2.688802e-01	2.688802e-01
126.828804	0.482554	dec_accept	0.482554	16.000000	n/a	8	2.682292e-01	2.682292e-01
126.828804	0.482554	dec_social_accept_high	0.482554	16.000000	n/a	8	2.682292e-01	2.682292e-01
133.661870	0.499443	dec_nonsocial_choice	0.499443	16.000000	n/a	8	2.688802e-01	2.688802e-01
133.661870	0.499443	dec_choice	0.499443	16.000000	n/a	8	2.695312e-01	2.695312e-01
133.661870	0.499443	dec_nonsocial_accept	0.499443	16.000000	n/a	8	2.688802e-01	2.688802e-01
133.661870	0.499443	dec_accept	0.499443	16.000000	n/a	8	2.695312e-01	2.695312e-01
133.661870	0.499443	dec_nonsocial_high	0.499443	16.000000	n/a	8	2.695312e-01	2.695312e-01
133.661870	0.499443	dec_nonsocial_accept_high	0.499443	16.000000	n/a	8	2.695312e-01	2.695312e-01
140.495760	0.499553	dec_nonsocial_choice	0.499553	16.000000	n/a	2	-1.061198e-01	-1.061198e-01
140.495760	0.499553	dec_choice	0.499553	16.000000	n/a	2	-1.054688e-01	-1.054688e-01
140.495760	0.499553	dec_nonsocial_accept	0.499553	16.000000	n/a	2	-1.061198e-01	-1.061198e-01
140.495760	0.499553	dec_accept	0.499553	16.000000	n/a	2	-1.054688e-01	-1.054688e-01
140.495760	0.499553	dec_nonsocial_low	0.499553	16.000000	n/a	2	-1.054688e-01	-1.054688e-01
140.495760	0.499553	dec_nonsocial_accept_low	0.499553	16.000000	n/a	2	-1.054688e-01	-1.054688e-01
147.328720	0.483346	dec_nonsocial_choice	0.483346	32.000000	n/a	2	-1.686198e-01	-1.686198e-01
147.328720	0.483346	dec_choice	0.483346	32.000000	n/a	2	-1.679688e-01	-1.679688e-01
147.328720	0.483346	dec_nonsocial_accept	0.483346	32.000000	n/a	2	-1.686198e-01	-1.686198e-01
147.328720	0.483346	dec_accept	0.483346	32.000000	n/a	2	-1.679688e-01	-1.679688e-01
147.328720	0.483346	dec_nonsocial_low	0.483346	32.000000	n/a	2	-1.679688e-01	-1.679688e-01
147.328720	0.483346	dec_nonsocial_accept_low	0.483346	32.000000	n/a	2	-1.679688e-01	-1.679688e-01
154.161740	0.716719	dec_nonsocial_choice	0.716719	16.000000	n/a	4	1.888021e-02	1.888021e-02
154.161740	0.716719	dec_choice	0.716719	16.000000	n/a	4	1.953125e-02	1.953125e-02
154.161740	0.716719	dec_nonsocial_accept	0.716719	16.000000	n/a	4	1.888021e-02	1.888021e-02
154.161740	0.716719	dec_accept	0.716719	16.000000	n/a	4	1.953125e-02	1.953125e-02
154.161740	0.716719	dec_nonsocial_accept_high	0.716719	16.000000	n/a	4	1.822917e-02	1.822917e-02
160.995740	0.515783	dec_nonsocial_choice	0.515783	16.000000	n/a	1	-1.686198e-01	-1.686198e-01
160.995740	0.515783	dec_choice	0.515783	16.000000	n/a	1	-1.679688e-01	-1.679688e-01
160.995740	0.515783	dec_nonsocial_accept	0.515783	16.000000	n/a	1	-1.686198e-01	-1.686198e-01
160.995740	0.515783	dec_accept	0.515783	16.000000	n/a	1	-1.679688e-01	-1.679688e-01
160.995740	0.515783	dec_nonsocial_low	0.515783	16.000000	n/a	1	-1.679688e-01	-1.679688e-01
160.995740	0.515783	dec_nonsocial_accept_low	0.515783	16.000000	n/a	1	-1.679688e-01	-1.679688e-01
168.645700	0.565249	dec_social_choice	0.565249	32.000000	n/a	2	-1.686198e-01	-1.686198e-01
168.645700	0.565249	dec_choice	0.565249	32.000000	n/a	2	-1.692708e-01	-1.692708e-01
168.645700	0.565249	dec_social_accept	0.565249	32.000000	n/a	2	-1.686198e-01	-1.686198e-01
168.645700	0.565249	dec_accept	0.565249	32.000000	n/a	2	-1.692708e-01	-1.692708e-01
168.645700	0.565249	dec_social_accept_low	0.565249	32.000000	n/a	2	-1.692708e-01	-1.692708e-01
175.479860	0.514838	dec_nonsocial_choice	0.514838	32.000000	n/a	16	2.688802e-01	2.688802e-01
175.479860	0.514838	dec_choice	0.514838	32.000000	n/a	16	2.695312e-01	2.695312e-01
175.479860	0.514838	dec_nonsocial_accept	0.514838	32.000000	n/a	16	2.688802e-01	2.688802e-01
175.479860	0.514838	dec_accept	0.514838	32.000000	n/a	16	2.695312e-01	2.695312e-01
175.479860	0.514838	dec_nonsocial_high	0.514838	32.000000	n/a	16	2.695312e-01	2.695312e-01
175.479860	0.514838	dec_nonsocial_accept_high	0.514838	32.000000	n/a	16	2.695312e-01	2.695312e-01
182.312680	0.565536	dec_nonsocial_choice	0.565536	16.000000	n/a	2	-1.061198e-01	-1.061198e-01
182.312680	0.565536	dec_choice	0.565536	16.000000	n/a	2	-1.054688e-01	-1.054688e-01
182.312680	0.565536	dec_nonsocial_accept	0.565536	16.000000	n/a	2	-1.061198e-01	-1.061198e-01
182.312680	0.565536	dec_accept	0.565536	16.000000	n/a	2	-1.054688e-01	-1.054688e-01
182.312680	0.565536	dec_nonsocial_accept_low	0.565536	16.000000	n/a	2	-1.067708e-01	-1.067708e-01
189.144210	0.501061	dec_social_choice	0.501061	32.000000	n/a	16	2.688802e-01	2.688802e-01
189.144210	0.501061	dec_choice	0.501061	32.000000	n/a	16	2.682292e-01	2.682292e-01
189.144210	0.501061	dec_social_accept	0.501061	32.000000	n/a	16	2.688802e-01	2.688802e-01
189.144210	0.501061	dec_accept	0.501061	32.000000	n/a	16	2.682292e-01	2.682292e-01
189.144210	0.501061	dec_social_high	0.501061	32.000000	n/a	16	2.682292e-01	2.682292e-01
189.144210	0.501061	dec_social_accept_high	0.501061	32.000000	n/a	16	2.682292e-01	2.682292e-01
196.778690	0.565863	dec_nonsocial_choice	0.565863	32.000000	n/a	16	2.688802e-01	2.688802e-01
196.778690	0.565863	dec_choice	0.565863	32.000000	n/a	16	2.695312e-01	2.695312e-01
196.778690	0.565863	dec_nonsocial_accept	0.565863	32.000000	n/a	16	2.688802e-01	2.688802e-01
196.778690	0.565863	dec_accept	0.565863	32.000000	n/a	16	2.695312e-01	2.695312e-01
196.778690	0.565863	dec_nonsocial_accept_high	0.565863	32.000000	n/a	16	2.682292e-01	2.682292e-01
206.045360	0.516236	dec_nonsocial_choice	0.516236	32.000000	n/a	16	2.688802e-01	2.688802e-01
206.045360	0.516236	dec_choice	0.516236	32.000000	n/a	16	2.695312e-01	2.695312e-01
206.045360	0.516236	dec_nonsocial_accept	0.516236	32.000000	n/a	16	2.688802e-01	2.688802e-01
206.045360	0.516236	dec_accept	0.516236	32.000000	n/a	16	2.695312e-01	2.695312e-01
206.045360	0.516236	dec_nonsocial_high	0.516236	32.000000	n/a	16	2.695312e-01	2.695312e-01
206.045360	0.516236	dec_nonsocial_accept_high	0.516236	32.000000	n/a	16	2.695312e-01	2.695312e-01
213.694760	0.566613	dec_social_choice	0.566613	16.000000	n/a	8	2.688802e-01	2.688802e-01
213.694760	0.566613	dec_choice	0.566613	16.000000	n/a	8	2.682292e-01	2.682292e-01
213.694760	0.566613	dec_social_accept	0.566613	16.000000	n/a	8	2.688802e-01	2.688802e-01
213.694760	0.566613	dec_accept	0.566613	16.000000	n/a	8	2.682292e-01	2.682292e-01
213.694760	0.566613	dec_social_high	0.566613	16.000000	n/a	8	2.682292e-01	2.682292e-01
213.694760	0.566613	dec_social_accept_high	0.566613	16.000000	n/a	8	2.682292e-01	2.682292e-01
221.344880	0.700402	dec_social_choice	0.700402	16.000000	n/a	1	-1.686198e-01	-1.686198e-01
221.344880	0.700402	dec_choice	0.700402	16.000000	n/a	1	-1.692708e-01	-1.692708e-01
221.344880	0.700402	dec_social_accept	0.700402	16.000000	n/a	1	-1.686198e-01	-1.686198e-01
221.344880	0.700402	dec_accept	0.700402	16.000000	n/a	1	-1.692708e-01	-1.692708e-01
221.344880	0.700402	dec_social_low	0.700402	16.000000	n/a	1	-1.692708e-01	-1.692708e-01
221.344880	0.700402	dec_social_accept_low	0.700402	16.000000	n/a	1	-1.692708e-01	-1.692708e-01
228.977970	0.466344	dec_nonsocial_choice	0.466344	32.000000	n/a	8	1.888021e-02	1.888021e-02
228.977970	0.466344	dec_choice	0.466344	32.000000	n/a	8	1.953125e-02	1.953125e-02
228.977970	0.466344	dec_nonsocial_accept	0.466344	32.000000	n/a	8	1.888021e-02	1.888021e-02
228.977970	0.466344	dec_accept	0.466344	32.000000	n/a	8	1.953125e-02	1.953125e-02
228.977970	0.466344	dec_nonsocial_high	0.466344	32.000000	n/a	8	1.953125e-02	1.953125e-02
228.977970	0.466344	dec_nonsocial_accept_high	0.466344	32.000000	n/a	8	1.953125e-02	1.953125e-02
236.628620	0.499444	dec_social_choice	0.499444	16.000000	n/a	8	2.688802e-01	2.688802e-01
236.628620	0.499444	dec_choice	0.499444	16.000000	n/a	8	2.682292e-01	2.682292e-01
236.628620	0.499444	dec_social_accept	0.499444	16.000000	n/a	8	2.688802e-01	2.688802e-01
236.628620	0.499444	dec_accept	0.499444	16.000000	n/a	8	2.682292e-01	2.682292e-01
236.628620	0.499444	dec_social_accept_high	0.499444	16.000000	n/a	8	2.682292e-01	2.682292e-01
243.462600	0.482620	dec_social_choice	0.482620	32.000000	n/a	8	1.888021e-02	1.888021e-02
243.462600	0.482620	dec_choice	0.482620	32.000000	n/a	8	1.822917e-02	1.822917e-02
243.462600	0.482620	dec_social_accept	0.482620	32.000000	n/a	8	1.888021e-02	1.888021e-02
243.462600	0.482620	dec_accept	0.482620	32.000000	n/a	8	1.822917e-02	1.822917e-02
243.462600	0.482620	dec_social_high	0.482620	32.000000	n/a	8	1.822917e-02	1.822917e-02
243.462600	0.482620	dec_social_accept_high	0.482620	32.000000	n/a	8	1.822917e-02	1.822917e-02
250.295650	0.565817	dec_social_choice	0.565817	32.000000	n/a	3	-1.373698e-01	-1.373698e-01
250.295650	0.565817	dec_choice	0.565817	32.000000	n/a	3	-1.380208e-01	-1.380208e-01
250.295650	0.565817	dec_social_accept	0.565817	32.000000	n/a	3	-1.373698e-01	-1.373698e-01
250.295650	0.565817	dec_accept	0.565817	32.000000	n/a	3	-1.380208e-01	-1.380208e-01
250.295650	0.565817	dec_social_accept_low	0.565817	32.000000	n/a	3	-1.380208e-01	-1.380208e-01
257.945560	0.449183	dec_nonsocial_choice	0.449183	32.000000	n/a	2	-1.686198e-01	-1.686198e-01
257.945560	0.449183	dec_choice	0.449183	32.000000	n/a	2	-1.679688e-01	-1.679688e-01
257.945560	0.449183	dec_nonsocial_accept	0.449183	32.000000	n/a	2	-1.686198e-01	-1.686198e-01
257.945560	0.449183	dec_accept	0.449183	32.000000	n/a	2	-1.679688e-01	-1.679688e-01
257.945560	0.449183	dec_nonsocial_low	0.449183	32.000000	n/a	2	-1.679688e-01	-1.679688e-01
257.945560	0.449183	dec_nonsocial_accept_low	0.449183	32.000000	n/a	2	-1.679688e-01	-1.679688e-01
264.778600	0.565954	dec_social_choice	0.565954	16.000000	n/a	4	1.888021e-02	1.888021e-02
264.778600	0.565954	dec_choice	0.565954	16.000000	n/a	4	1.822917e-02	1.822917e-02
264.778600	0.565954	dec_social_accept	0.565954	16.000000	n/a	4	1.888021e-02	1.888021e-02
264.778600	0.565954	dec_accept	0.565954	16.000000	n/a	4	1.822917e-02	1.822917e-02
264.778600	0.565954	dec_social_high	0.565954	16.000000	n/a	4	1.822917e-02	1.822917e-02
264.778600	0.565954	dec_social_accept_high	0.565954	16.000000	n/a	4	1.822917e-02	1.822917e-02
274.045600	0.532286	dec_nonsocial_choice	0.532286	32.000000	n/a	2	-1.686198e-01	-1.686198e-01
274.045600	0.532286	dec_choice	0.532286	32.000000	n/a	2	-1.679688e-01	-1.679688e-01
274.045600	0.532286	dec_nonsocial_accept	0.532286	32.000000	n/a	2	-1.686198e-01	-1.686198e-01
274.045600	0.532286	dec_accept	0.532286	32.000000	n/a	2	-1.679688e-01	-1.679688e-01
274.045600	0.532286	dec_nonsocial_accept_low	0.532286	32.000000	n/a	2	-1.692708e-01	-1.692708e-01
280.877530	0.617400	dec_social_choice	0.617400	32.000000	n/a	16	2.688802e-01	2.688802e-01
280.877530	0.617400	dec_choice	0.617400	32.000000	n/a	16	2.682292e-01	2.682292e-01
280.877530	0.617400	dec_social_accept	0.617400	32.000000	n/a	16	2.688802e-01	2.688802e-01
280.877530	0.617400	dec_accept	0.617400	32.000000	n/a	16	2.682292e-01	2.682292e-01
280.877530	0.617400	dec_social_high	0.617400	32.000000	n/a	16	2.682292e-01	2.682292e-01
280.877530	0.617400	dec_social_accept_high	0.617400	32.000000	n/a	16	2.682292e-01	2.682292e-01
291.745540	0.532615	dec_nonsocial_choice	0.532615	32.000000	n/a	3	-1.373698e-01	-1.373698e-01
291.745540	0.532615	dec_choice	0.532615	32.000000	n/a	3	-1.367188e-01	-1.367188e-01
291.745540	0.532615	dec_nonsocial_accept	0.532615	32.000000	n/a	3	-1.373698e-01	-1.373698e-01
291.745540	0.532615	dec_accept	0.532615	32.000000	n/a	3	-1.367188e-01	-1.367188e-01
291.745540	0.532615	dec_nonsocial_low	0.532615	32.000000	n/a	3	-1.367188e-01	-1.367188e-01
291.745540	0.532615	dec_nonsocial_accept_low	0.532615	32.000000	n/a	3	-1.367188e-01	-1.367188e-01
298.578550	0.533062	dec_social_choice	0.533062	32.000000	n/a	2	-1.686198e-01	-1.686198e-01
298.578550	0.533062	dec_choice	0.533062	32.000000	n/a	2	-1.692708e-01	-1.692708e-01
298.578550	0.533062	dec_social_accept	0.533062	32.000000	n/a	2	-1.686198e-01	-1.686198e-01
298.578550	0.533062	dec_accept	0.533062	32.000000	n/a	2	-1.692708e-01	-1.692708e-01
298.578550	0.533062	dec_social_accept_low	0.533062	32.000000	n/a	2	-1.692708e-01	-1.692708e-01
307.828500	0.365726	dec_social_choice	0.365726	16.000000	n/a	1	-1.686198e-01	-1.686198e-01
307.828500	0.365726	dec_choice	0.365726	16.000000	n/a	1	-1.692708e-01	-1.692708e-01
307.828500	0.365726	dec_social_accept	0.365726	16.000000	n/a	1	-1.686198e-01	-1.686198e-01
307.828500	0.365726	dec_accept	0.365726	16.000000	n/a	1	-1.692708e-01	-1.692708e-01
307.828500	0.365726	dec_social_low	0.365726	16.000000	n/a	1	-1.692708e-01	-1.692708e-01
307.828500	0.365726	dec_social_accept_low	0.365726	16.000000	n/a	1	-1.692708e-01	-1.692708e-01
314.661530	0.466411	dec_nonsocial_choice	0.466411	32.000000	n/a	2	-1.686198e-01	-1.686198e-01
314.661530	0.466411	dec_choice	0.466411	32.000000	n/a	2	-1.679688e-01	-1.679688e-01
314.661530	0.466411	dec_nonsocial_accept	0.466411	32.000000	n/a	2	-1.686198e-01	-1.686198e-01
314.661530	0.466411	dec_accept	0.466411	32.000000	n/a	2	-1.679688e-01	-1.679688e-01
314.661530	0.466411	dec_nonsocial_low	0.466411	32.000000	n/a	2	-1.679688e-01	-1.679688e-01
314.661530	0.466411	dec_nonsocial_accept_low	0.466411	32.000000	n/a	2	-1.679688e-01	-1.679688e-01
321.494570	0.566480	dec_nonsocial_choice	0.566480	16.000000	n/a	4	1.888021e-02	1.888021e-02
321.494570	0.566480	dec_choice	0.566480	16.000000	n/a	4	1.953125e-02	1.953125e-02
321.494570	0.566480	dec_nonsocial_accept	0.566480	16.000000	n/a	4	1.888021e-02	1.888021e-02
321.494570	0.566480	dec_accept	0.566480	16.000000	n/a	4	1.953125e-02	1.953125e-02
321.494570	0.566480	dec_nonsocial_accept_high	0.566480	16.000000	n/a	4	1.822917e-02	1.822917e-02
328.329070	0.564955	dec_social_choice	0.564955	16.000000	n/a	1	-1.686198e-01	-1.686198e-01
328.329070	0.564955	dec_choice	0.564955	16.000000	n/a	1	-1.692708e-01	-1.692708e-01
328.329070	0.564955	dec_social_accept	0.564955	16.000000	n/a	1	-1.686198e-01	-1.686198e-01
328.329070	0.564955	dec_accept	0.564955	16.000000	n/a	1	-1.692708e-01	-1.692708e-01
328.329070	0.564955	dec_social_accept_low	0.564955	16.000000	n/a	1	-1.692708e-01	-1.692708e-01
335.161500	0.566634	dec_social_choice	0.566634	16.000000	n/a	2	-1.061198e-01	-1.061198e-01
335.161500	0.566634	dec_choice	0.566634	16.000000	n/a	2	-1.067708e-01	-1.067708e-01
335.161500	0.566634	dec_social_accept	0.566634	16.000000	n/a	2	-1.061198e-01	-1.061198e-01
335.161500	0.566634	dec_accept	0.566634	16.000000	n/a	2	-1.067708e-01	-1.067708e-01
335.161500	0.566634	dec_social_accept_low	0.566634	16.000000	n/a	2	-1.067708e-01	-1.067708e-01
347.645450	0.532163	dec_nonsocial_choice	0.532163	32.000000	n/a	8	1.888021e-02	1.888021e-02
347.645450	0.532163	dec_choice	0.532163	32.000000	n/a	8	1.953125e-02	1.953125e-02
347.645450	0.532163	dec_nonsocial_accept	0.532163	32.000000	n/a	8	1.888021e-02	1.888021e-02
347.645450	0.532163	dec_accept	0.532163	32.000000	n/a	8	1.953125e-02	1.953125e-02
347.645450	0.532163	dec_nonsocial_accept_high	0.532163	32.000000	n/a	8	1.822917e-02	1.822917e-02
355.294460	0.666430	dec_nonsocial_choice	0.666430	32.000000	n/a	16	2.688802e-01	2.688802e-01
355.294460	0.666430	dec_choice	0.666430	32.000000	n/a	16	2.695312e-01	2.695312e-01
355.294460	0.666430	dec_nonsocial_accept	0.666430	32.000000	n/a	16	2.688802e-01	2.688802e-01
355.294460	0.666430	dec_accept	0.666430	32.000000	n/a	16	2.695312e-01	2.695312e-01
355.294460	0.666430	dec_nonsocial_accept_high	0.666430	32.000000	n/a	16	2.682292e-01	2.682292e-01
362.128450	0.632911	dec_nonsocial_choice	0.632911	16.000000	n/a	1	-1.686198e-01	-1.686198e-01
362.128450	0.632911	dec_choice	0.632911	16.000000	n/a	1	-1.679688e-01	-1.679688e-01
362.128450	0.632911	dec_nonsocial_accept	0.632911	16.000000	n/a	1	-1.686198e-01	-1.686198e-01
362.128450	0.632911	dec_accept	0.632911	16.000000	n/a	1	-1.679688e-01	-1.679688e-01
362.128450	0.632911	dec_nonsocial_low	0.632911	16.000000	n/a	1	-1.679688e-01	-1.679688e-01
362.128450	0.632911	dec_nonsocial_accept_low	0.632911	16.000000	n/a	1	-1.679688e-01	-1.679688e-01
368.961430	0.499016	dec_social_choice	0.499016	32.000000	n/a	8	1.888021e-02	1.888021e-02
368.961430	0.499016	dec_choice	0.499016	32.000000	n/a	8	1.822917e-02	1.822917e-02
368.961430	0.499016	dec_social_accept	0.499016	32.000000	n/a	8	1.888021e-02	1.888021e-02
368.961430	0.499016	dec_accept	0.499016	32.000000	n/a	8	1.822917e-02	1.822917e-02
368.961430	0.499016	dec_social_high	0.499016	32.000000	n/a	8	1.822917e-02	1.822917e-02
368.961430	0.499016	dec_social_accept_high	0.499016	32.000000	n/a	8	1.822917e-02	1.822917e-02
