onset	duration	trial_type	response_time	Endowment	Endowment_pmod	Decision	Decision_pmod	Offer_pmod
4.504922	2	cue_nonsocial	n/a	16	-9	n/a	n/a	n/a
4.504922	2	cue_nonsocial_low	n/a	16	-7	n/a	n/a	n/a
11.338907	2	cue_nonsocial	n/a	32	7	n/a	n/a	n/a
11.338907	2	cue_nonsocial_high	n/a	32	9	n/a	n/a	n/a
18.285850	2	cue_social	n/a	32	9	n/a	n/a	n/a
18.285850	2	cue_social_high	n/a	32	7	n/a	n/a	n/a
25.006123	2	cue_social	n/a	32	9	n/a	n/a	n/a
25.006123	2	cue_social_high	n/a	32	7	n/a	n/a	n/a
31.954622	2	cue_social	n/a	32	9	n/a	n/a	n/a
31.954622	2	cue_social_high	n/a	32	7	n/a	n/a	n/a
39.592396	2	cue_social	n/a	16	-7	n/a	n/a	n/a
39.592396	2	cue_social_low	n/a	16	-9	n/a	n/a	n/a
50.437504	2	cue_social	n/a	32	9	n/a	n/a	n/a
50.437504	2	cue_social_high	n/a	32	7	n/a	n/a	n/a
58.004593	2	cue_nonsocial	n/a	32	7	n/a	n/a	n/a
58.004593	2	cue_nonsocial_high	n/a	32	9	n/a	n/a	n/a
64.919270	2	cue_social	n/a	32	9	n/a	n/a	n/a
64.919270	2	cue_social_high	n/a	32	7	n/a	n/a	n/a
71.671165	2	cue_nonsocial	n/a	32	7	n/a	n/a	n/a
71.671165	2	cue_nonsocial_high	n/a	32	9	n/a	n/a	n/a
78.589670	2	cue_social	n/a	16	-7	n/a	n/a	n/a
78.589670	2	cue_social_low	n/a	16	-9	n/a	n/a	n/a
85.416590	2	cue_social	n/a	16	-7	n/a	n/a	n/a
85.416590	2	cue_social_low	n/a	16	-9	n/a	n/a	n/a
92.243930	2	cue_social	n/a	32	9	n/a	n/a	n/a
92.243930	2	cue_social_high	n/a	32	7	n/a	n/a	n/a
101.500880	2	cue_social	n/a	32	9	n/a	n/a	n/a
101.500880	2	cue_social_high	n/a	32	7	n/a	n/a	n/a
108.380610	2	cue_social	n/a	16	-7	n/a	n/a	n/a
108.380610	2	cue_social_low	n/a	16	-9	n/a	n/a	n/a
115.104310	2	cue_nonsocial	n/a	16	-9	n/a	n/a	n/a
115.104310	2	cue_nonsocial_low	n/a	16	-7	n/a	n/a	n/a
122.785080	2	cue_social	n/a	16	-7	n/a	n/a	n/a
122.785080	2	cue_social_low	n/a	16	-9	n/a	n/a	n/a
129.587800	2	cue_nonsocial	n/a	32	7	n/a	n/a	n/a
129.587800	2	cue_nonsocial_high	n/a	32	9	n/a	n/a	n/a
140.470860	2	cue_nonsocial	n/a	32	7	n/a	n/a	n/a
140.470860	2	cue_nonsocial_high	n/a	32	9	n/a	n/a	n/a
152.937680	2	cue_nonsocial	n/a	32	7	n/a	n/a	n/a
152.937680	2	cue_nonsocial_high	n/a	32	9	n/a	n/a	n/a
162.187550	2	cue_nonsocial	n/a	32	7	n/a	n/a	n/a
162.187550	2	cue_nonsocial_high	n/a	32	9	n/a	n/a	n/a
169.850740	2	cue_social	n/a	16	-7	n/a	n/a	n/a
169.850740	2	cue_social_low	n/a	16	-9	n/a	n/a	n/a
177.569900	2	cue_social	n/a	16	-7	n/a	n/a	n/a
177.569900	2	cue_social_low	n/a	16	-9	n/a	n/a	n/a
185.202000	2	cue_social	n/a	16	-7	n/a	n/a	n/a
185.202000	2	cue_social_low	n/a	16	-9	n/a	n/a	n/a
192.033040	2	cue_social	n/a	16	-7	n/a	n/a	n/a
192.033040	2	cue_social_low	n/a	16	-9	n/a	n/a	n/a
198.805740	2	cue_social	n/a	16	-7	n/a	n/a	n/a
198.805740	2	cue_social_low	n/a	16	-9	n/a	n/a	n/a
205.751130	2	cue_social	n/a	32	9	n/a	n/a	n/a
205.751130	2	cue_social_high	n/a	32	7	n/a	n/a	n/a
214.904540	2	cue_nonsocial	n/a	16	-9	n/a	n/a	n/a
214.904540	2	cue_nonsocial_low	n/a	16	-7	n/a	n/a	n/a
221.745880	2	cue_nonsocial	n/a	16	-9	n/a	n/a	n/a
221.745880	2	cue_nonsocial_low	n/a	16	-7	n/a	n/a	n/a
229.387190	2	cue_nonsocial	n/a	32	7	n/a	n/a	n/a
229.387190	2	cue_nonsocial_high	n/a	32	9	n/a	n/a	n/a
240.322700	2	cue_social	n/a	16	-7	n/a	n/a	n/a
240.322700	2	cue_social_low	n/a	16	-9	n/a	n/a	n/a
247.150470	2	cue_social	n/a	32	9	n/a	n/a	n/a
247.150470	2	cue_social_high	n/a	32	7	n/a	n/a	n/a
256.337370	2	cue_nonsocial	n/a	16	-9	n/a	n/a	n/a
256.337370	2	cue_nonsocial_low	n/a	16	-7	n/a	n/a	n/a
263.987120	2	cue_nonsocial	n/a	32	7	n/a	n/a	n/a
263.987120	2	cue_nonsocial_high	n/a	32	9	n/a	n/a	n/a
273.237580	2	cue_nonsocial	n/a	16	-9	n/a	n/a	n/a
273.237580	2	cue_nonsocial_low	n/a	16	-7	n/a	n/a	n/a
280.071560	2	cue_nonsocial	n/a	16	-9	n/a	n/a	n/a
280.071560	2	cue_nonsocial_low	n/a	16	-7	n/a	n/a	n/a
286.903900	2	cue_nonsocial	n/a	16	-9	n/a	n/a	n/a
286.903900	2	cue_nonsocial_low	n/a	16	-7	n/a	n/a	n/a
296.217440	2	cue_social	n/a	16	-7	n/a	n/a	n/a
296.217440	2	cue_social_low	n/a	16	-9	n/a	n/a	n/a
302.987150	2	cue_nonsocial	n/a	16	-9	n/a	n/a	n/a
302.987150	2	cue_nonsocial_low	n/a	16	-7	n/a	n/a	n/a
310.713130	2	cue_social	n/a	32	9	n/a	n/a	n/a
310.713130	2	cue_social_high	n/a	32	7	n/a	n/a	n/a
318.287400	2	cue_nonsocial	n/a	16	-9	n/a	n/a	n/a
318.287400	2	cue_nonsocial_low	n/a	16	-7	n/a	n/a	n/a
325.120180	2	cue_nonsocial	n/a	32	7	n/a	n/a	n/a
325.120180	2	cue_nonsocial_high	n/a	32	9	n/a	n/a	n/a
334.370180	2	cue_nonsocial	n/a	16	-9	n/a	n/a	n/a
334.370180	2	cue_nonsocial_low	n/a	16	-7	n/a	n/a	n/a
342.020260	2	cue_nonsocial	n/a	32	7	n/a	n/a	n/a
342.020260	2	cue_nonsocial_high	n/a	32	9	n/a	n/a	n/a
348.936950	2	cue_social	n/a	16	-7	n/a	n/a	n/a
348.936950	2	cue_social_low	n/a	16	-9	n/a	n/a	n/a
356.567170	2	cue_social	n/a	32	9	n/a	n/a	n/a
356.567170	2	cue_social_high	n/a	32	7	n/a	n/a	n/a
363.337160	2	cue_nonsocial	n/a	32	7	n/a	n/a	n/a
363.337160	2	cue_nonsocial_high	n/a	32	9	n/a	n/a	n/a
370.987000	2	cue_nonsocial	n/a	32	7	n/a	n/a	n/a
370.987000	2	cue_nonsocial_high	n/a	32	9	n/a	n/a	n/a
6.510960	0.750127	dec_nonsocial_choice	0.750127	16.000000	n/a	2	-1.061198e-01	-1.061198e-01
6.510960	0.750127	dec_choice	0.750127	16.000000	n/a	2	-1.067708e-01	-1.067708e-01
6.510960	0.750127	dec_nonsocial_accept	0.750127	16.000000	n/a	2	-1.061198e-01	-1.061198e-01
6.510960	0.750127	dec_accept	0.750127	16.000000	n/a	2	-1.067708e-01	-1.067708e-01
6.510960	0.750127	dec_nonsocial_low	0.750127	16.000000	n/a	2	-1.067708e-01	-1.067708e-01
6.510960	0.750127	dec_nonsocial_accept_low	0.750127	16.000000	n/a	2	-1.067708e-01	-1.067708e-01
13.344746	0.565300	dec_nonsocial_choice	0.565300	32.000000	n/a	2	-1.686198e-01	-1.686198e-01
13.344746	0.565300	dec_choice	0.565300	32.000000	n/a	2	-1.692708e-01	-1.692708e-01
13.344746	0.565300	dec_nonsocial_accept	0.565300	32.000000	n/a	2	-1.686198e-01	-1.686198e-01
13.344746	0.565300	dec_accept	0.565300	32.000000	n/a	2	-1.692708e-01	-1.692708e-01
13.344746	0.565300	dec_nonsocial_low	0.565300	32.000000	n/a	2	-1.692708e-01	-1.692708e-01
13.344746	0.565300	dec_nonsocial_accept_low	0.565300	32.000000	n/a	2	-1.692708e-01	-1.692708e-01
20.177958	0.465673	dec_social_choice	0.465673	32.000000	n/a	2	-1.686198e-01	-1.686198e-01
20.177958	0.465673	dec_choice	0.465673	32.000000	n/a	2	-1.679688e-01	-1.679688e-01
20.177958	0.465673	dec_social_accept	0.465673	32.000000	n/a	2	-1.686198e-01	-1.686198e-01
20.177958	0.465673	dec_accept	0.465673	32.000000	n/a	2	-1.679688e-01	-1.679688e-01
20.177958	0.465673	dec_social_low	0.465673	32.000000	n/a	2	-1.679688e-01	-1.679688e-01
20.177958	0.465673	dec_social_accept_low	0.465673	32.000000	n/a	2	-1.679688e-01	-1.679688e-01
27.010017	0.517081	dec_social_choice	0.517081	32.000000	n/a	16	2.688802e-01	2.688802e-01
27.010017	0.517081	dec_choice	0.517081	32.000000	n/a	16	2.695312e-01	2.695312e-01
27.010017	0.517081	dec_social_accept	0.517081	32.000000	n/a	16	2.688802e-01	2.688802e-01
27.010017	0.517081	dec_accept	0.517081	32.000000	n/a	16	2.695312e-01	2.695312e-01
27.010017	0.517081	dec_social_high	0.517081	32.000000	n/a	16	2.695312e-01	2.695312e-01
27.010017	0.517081	dec_social_accept_high	0.517081	32.000000	n/a	16	2.695312e-01	2.695312e-01
33.843925	0.483632	dec_social_choice	0.483632	32.000000	n/a	3	-1.373698e-01	-1.373698e-01
33.843925	0.483632	dec_choice	0.483632	32.000000	n/a	3	-1.367188e-01	-1.367188e-01
33.843925	0.483632	dec_social_accept	0.483632	32.000000	n/a	3	-1.373698e-01	-1.373698e-01
33.843925	0.483632	dec_accept	0.483632	32.000000	n/a	3	-1.367188e-01	-1.367188e-01
33.843925	0.483632	dec_social_low	0.483632	32.000000	n/a	3	-1.367188e-01	-1.367188e-01
33.843925	0.483632	dec_social_accept_low	0.483632	32.000000	n/a	3	-1.367188e-01	-1.367188e-01
41.493908	0.783777	dec_social_choice	0.783777	16.000000	n/a	4	1.888021e-02	1.888021e-02
41.493908	0.783777	dec_choice	0.783777	16.000000	n/a	4	1.953125e-02	1.953125e-02
41.493908	0.783777	dec_social_accept	0.783777	16.000000	n/a	4	1.888021e-02	1.888021e-02
41.493908	0.783777	dec_accept	0.783777	16.000000	n/a	4	1.953125e-02	1.953125e-02
41.493908	0.783777	dec_social_accept_high	0.783777	16.000000	n/a	4	1.953125e-02	1.953125e-02
52.360832	0.616075	dec_social_choice	0.616075	32.000000	n/a	2	-1.686198e-01	-1.686198e-01
52.360832	0.616075	dec_choice	0.616075	32.000000	n/a	2	-1.679688e-01	-1.679688e-01
52.360832	0.616075	dec_social_accept	0.616075	32.000000	n/a	2	-1.686198e-01	-1.686198e-01
52.360832	0.616075	dec_accept	0.616075	32.000000	n/a	2	-1.679688e-01	-1.679688e-01
52.360832	0.616075	dec_social_low	0.616075	32.000000	n/a	2	-1.679688e-01	-1.679688e-01
52.360832	0.616075	dec_social_accept_low	0.616075	32.000000	n/a	2	-1.679688e-01	-1.679688e-01
60.010870	0.566127	dec_nonsocial_choice	0.566127	32.000000	n/a	3	-1.373698e-01	-1.373698e-01
60.010870	0.566127	dec_choice	0.566127	32.000000	n/a	3	-1.380208e-01	-1.380208e-01
60.010870	0.566127	dec_nonsocial_accept	0.566127	32.000000	n/a	3	-1.373698e-01	-1.373698e-01
60.010870	0.566127	dec_accept	0.566127	32.000000	n/a	3	-1.380208e-01	-1.380208e-01
60.010870	0.566127	dec_nonsocial_low	0.566127	32.000000	n/a	3	-1.380208e-01	-1.380208e-01
60.010870	0.566127	dec_nonsocial_accept_low	0.566127	32.000000	n/a	3	-1.380208e-01	-1.380208e-01
66.843864	0.433095	dec_social_choice	0.433095	32.000000	n/a	8	1.888021e-02	1.888021e-02
66.843864	0.433095	dec_choice	0.433095	32.000000	n/a	8	1.953125e-02	1.953125e-02
66.843864	0.433095	dec_social_accept	0.433095	32.000000	n/a	8	1.888021e-02	1.888021e-02
66.843864	0.433095	dec_accept	0.433095	32.000000	n/a	8	1.953125e-02	1.953125e-02
66.843864	0.433095	dec_social_high	0.433095	32.000000	n/a	8	1.953125e-02	1.953125e-02
66.843864	0.433095	dec_social_accept_high	0.433095	32.000000	n/a	8	1.953125e-02	1.953125e-02
73.677560	0.533288	dec_nonsocial_choice	0.533288	32.000000	n/a	16	2.688802e-01	2.688802e-01
73.677560	0.533288	dec_choice	0.533288	32.000000	n/a	16	2.682292e-01	2.682292e-01
73.677560	0.533288	dec_nonsocial_accept	0.533288	32.000000	n/a	16	2.688802e-01	2.688802e-01
73.677560	0.533288	dec_accept	0.533288	32.000000	n/a	16	2.682292e-01	2.682292e-01
73.677560	0.533288	dec_nonsocial_high	0.533288	32.000000	n/a	16	2.682292e-01	2.682292e-01
73.677560	0.533288	dec_nonsocial_accept_high	0.533288	32.000000	n/a	16	2.682292e-01	2.682292e-01
80.511340	0.449404	dec_social_choice	0.449404	16.000000	n/a	4	1.888021e-02	1.888021e-02
80.511340	0.449404	dec_choice	0.449404	16.000000	n/a	4	1.953125e-02	1.953125e-02
80.511340	0.449404	dec_social_accept	0.449404	16.000000	n/a	4	1.888021e-02	1.888021e-02
80.511340	0.449404	dec_accept	0.449404	16.000000	n/a	4	1.953125e-02	1.953125e-02
80.511340	0.449404	dec_social_high	0.449404	16.000000	n/a	4	1.953125e-02	1.953125e-02
80.511340	0.449404	dec_social_accept_high	0.449404	16.000000	n/a	4	1.953125e-02	1.953125e-02
87.343530	0.566733	dec_social_choice	0.566733	16.000000	n/a	1	-1.686198e-01	-1.686198e-01
87.343530	0.566733	dec_choice	0.566733	16.000000	n/a	1	-1.679688e-01	-1.679688e-01
87.343530	0.566733	dec_social_accept	0.566733	16.000000	n/a	1	-1.686198e-01	-1.686198e-01
87.343530	0.566733	dec_accept	0.566733	16.000000	n/a	1	-1.679688e-01	-1.679688e-01
87.343530	0.566733	dec_social_accept_low	0.566733	16.000000	n/a	1	-1.679688e-01	-1.679688e-01
94.176900	0.433123	dec_social_choice	0.433123	32.000000	n/a	8	1.888021e-02	1.888021e-02
94.176900	0.433123	dec_choice	0.433123	32.000000	n/a	8	1.953125e-02	1.953125e-02
94.176900	0.433123	dec_social_accept	0.433123	32.000000	n/a	8	1.888021e-02	1.888021e-02
94.176900	0.433123	dec_accept	0.433123	32.000000	n/a	8	1.953125e-02	1.953125e-02
94.176900	0.433123	dec_social_high	0.433123	32.000000	n/a	8	1.953125e-02	1.953125e-02
94.176900	0.433123	dec_social_accept_high	0.433123	32.000000	n/a	8	1.953125e-02	1.953125e-02
103.443800	0.566888	dec_social_choice	0.566888	32.000000	n/a	3	-1.373698e-01	-1.373698e-01
103.443800	0.566888	dec_choice	0.566888	32.000000	n/a	3	-1.367188e-01	-1.367188e-01
103.443800	0.566888	dec_social_accept	0.566888	32.000000	n/a	3	-1.373698e-01	-1.373698e-01
103.443800	0.566888	dec_accept	0.566888	32.000000	n/a	3	-1.367188e-01	-1.367188e-01
103.443800	0.566888	dec_social_accept_low	0.566888	32.000000	n/a	3	-1.367188e-01	-1.367188e-01
110.276764	0.633503	dec_social_choice	0.633503	16.000000	n/a	8	2.688802e-01	2.688802e-01
110.276764	0.633503	dec_choice	0.633503	16.000000	n/a	8	2.695312e-01	2.695312e-01
110.276764	0.633503	dec_social_accept	0.633503	16.000000	n/a	8	2.688802e-01	2.688802e-01
110.276764	0.633503	dec_accept	0.633503	16.000000	n/a	8	2.695312e-01	2.695312e-01
110.276764	0.633503	dec_social_high	0.633503	16.000000	n/a	8	2.695312e-01	2.695312e-01
110.276764	0.633503	dec_social_accept_high	0.633503	16.000000	n/a	8	2.695312e-01	2.695312e-01
117.110770	0.483192	dec_nonsocial_choice	0.483192	16.000000	n/a	2	-1.061198e-01	-1.061198e-01
117.110770	0.483192	dec_choice	0.483192	16.000000	n/a	2	-1.067708e-01	-1.067708e-01
117.110770	0.483192	dec_nonsocial_accept	0.483192	16.000000	n/a	2	-1.061198e-01	-1.061198e-01
117.110770	0.483192	dec_accept	0.483192	16.000000	n/a	2	-1.067708e-01	-1.067708e-01
117.110770	0.483192	dec_nonsocial_low	0.483192	16.000000	n/a	2	-1.067708e-01	-1.067708e-01
117.110770	0.483192	dec_nonsocial_accept_low	0.483192	16.000000	n/a	2	-1.067708e-01	-1.067708e-01
124.759460	0.601294	dec_social_choice	0.601294	16.000000	n/a	4	1.888021e-02	1.888021e-02
124.759460	0.601294	dec_choice	0.601294	16.000000	n/a	4	1.953125e-02	1.953125e-02
124.759460	0.601294	dec_social_accept	0.601294	16.000000	n/a	4	1.888021e-02	1.888021e-02
124.759460	0.601294	dec_accept	0.601294	16.000000	n/a	4	1.953125e-02	1.953125e-02
124.759460	0.601294	dec_social_accept_high	0.601294	16.000000	n/a	4	1.953125e-02	1.953125e-02
131.593800	0.566181	dec_nonsocial_choice	0.566181	32.000000	n/a	3	-1.373698e-01	-1.373698e-01
131.593800	0.566181	dec_choice	0.566181	32.000000	n/a	3	-1.380208e-01	-1.380208e-01
131.593800	0.566181	dec_nonsocial_accept	0.566181	32.000000	n/a	3	-1.373698e-01	-1.373698e-01
131.593800	0.566181	dec_accept	0.566181	32.000000	n/a	3	-1.380208e-01	-1.380208e-01
131.593800	0.566181	dec_nonsocial_accept_low	0.566181	32.000000	n/a	3	-1.367188e-01	-1.367188e-01
142.460740	0.600168	dec_nonsocial_choice	0.600168	32.000000	n/a	2	-1.686198e-01	-1.686198e-01
142.460740	0.600168	dec_choice	0.600168	32.000000	n/a	2	-1.692708e-01	-1.692708e-01
142.460740	0.600168	dec_nonsocial_accept	0.600168	32.000000	n/a	2	-1.686198e-01	-1.686198e-01
142.460740	0.600168	dec_accept	0.600168	32.000000	n/a	2	-1.692708e-01	-1.692708e-01
142.460740	0.600168	dec_nonsocial_low	0.600168	32.000000	n/a	2	-1.692708e-01	-1.692708e-01
142.460740	0.600168	dec_nonsocial_accept_low	0.600168	32.000000	n/a	2	-1.692708e-01	-1.692708e-01
154.943390	0.549913	dec_nonsocial_choice	0.549913	32.000000	n/a	8	1.888021e-02	1.888021e-02
154.943390	0.549913	dec_choice	0.549913	32.000000	n/a	8	1.822917e-02	1.822917e-02
154.943390	0.549913	dec_nonsocial_accept	0.549913	32.000000	n/a	8	1.888021e-02	1.888021e-02
154.943390	0.549913	dec_accept	0.549913	32.000000	n/a	8	1.822917e-02	1.822917e-02
154.943390	0.549913	dec_nonsocial_accept_high	0.549913	32.000000	n/a	8	1.953125e-02	1.953125e-02
164.194690	0.565381	dec_nonsocial_choice	0.565381	32.000000	n/a	2	-1.686198e-01	-1.686198e-01
164.194690	0.565381	dec_choice	0.565381	32.000000	n/a	2	-1.692708e-01	-1.692708e-01
164.194690	0.565381	dec_nonsocial_accept	0.565381	32.000000	n/a	2	-1.686198e-01	-1.686198e-01
164.194690	0.565381	dec_accept	0.565381	32.000000	n/a	2	-1.692708e-01	-1.692708e-01
164.194690	0.565381	dec_nonsocial_low	0.565381	32.000000	n/a	2	-1.692708e-01	-1.692708e-01
164.194690	0.565381	dec_nonsocial_accept_low	0.565381	32.000000	n/a	2	-1.692708e-01	-1.692708e-01
171.843700	0.666279	dec_social_choice	0.666279	16.000000	n/a	2	-1.061198e-01	-1.061198e-01
171.843700	0.666279	dec_choice	0.666279	16.000000	n/a	2	-1.054688e-01	-1.054688e-01
171.843700	0.666279	dec_social_accept	0.666279	16.000000	n/a	2	-1.061198e-01	-1.061198e-01
171.843700	0.666279	dec_accept	0.666279	16.000000	n/a	2	-1.054688e-01	-1.054688e-01
171.843700	0.666279	dec_social_accept_low	0.666279	16.000000	n/a	2	-1.054688e-01	-1.054688e-01
179.493680	0.516583	dec_social_choice	0.516583	16.000000	n/a	2	-1.061198e-01	-1.061198e-01
179.493680	0.516583	dec_choice	0.516583	16.000000	n/a	2	-1.054688e-01	-1.054688e-01
179.493680	0.516583	dec_social_accept	0.516583	16.000000	n/a	2	-1.061198e-01	-1.061198e-01
179.493680	0.516583	dec_accept	0.516583	16.000000	n/a	2	-1.054688e-01	-1.054688e-01
179.493680	0.516583	dec_social_accept_low	0.516583	16.000000	n/a	2	-1.054688e-01	-1.054688e-01
187.143680	0.499799	dec_social_choice	0.499799	16.000000	n/a	1	-1.686198e-01	-1.686198e-01
187.143680	0.499799	dec_choice	0.499799	16.000000	n/a	1	-1.679688e-01	-1.679688e-01
187.143680	0.499799	dec_social_accept	0.499799	16.000000	n/a	1	-1.686198e-01	-1.686198e-01
187.143680	0.499799	dec_accept	0.499799	16.000000	n/a	1	-1.679688e-01	-1.679688e-01
187.143680	0.499799	dec_social_accept_low	0.499799	16.000000	n/a	1	-1.679688e-01	-1.679688e-01
193.977650	0.549129	dec_social_choice	0.549129	16.000000	n/a	2	-1.061198e-01	-1.061198e-01
193.977650	0.549129	dec_choice	0.549129	16.000000	n/a	2	-1.054688e-01	-1.054688e-01
193.977650	0.549129	dec_social_accept	0.549129	16.000000	n/a	2	-1.061198e-01	-1.061198e-01
193.977650	0.549129	dec_accept	0.549129	16.000000	n/a	2	-1.054688e-01	-1.054688e-01
193.977650	0.549129	dec_social_low	0.549129	16.000000	n/a	2	-1.054688e-01	-1.054688e-01
193.977650	0.549129	dec_social_accept_low	0.549129	16.000000	n/a	2	-1.054688e-01	-1.054688e-01
200.810060	0.516326	dec_social_choice	0.516326	16.000000	n/a	8	2.688802e-01	2.688802e-01
200.810060	0.516326	dec_choice	0.516326	16.000000	n/a	8	2.695312e-01	2.695312e-01
200.810060	0.516326	dec_social_accept	0.516326	16.000000	n/a	8	2.688802e-01	2.688802e-01
200.810060	0.516326	dec_accept	0.516326	16.000000	n/a	8	2.695312e-01	2.695312e-01
200.810060	0.516326	dec_social_high	0.516326	16.000000	n/a	8	2.695312e-01	2.695312e-01
200.810060	0.516326	dec_social_accept_high	0.516326	16.000000	n/a	8	2.695312e-01	2.695312e-01
207.644600	0.514869	dec_social_choice	0.514869	32.000000	n/a	3	-1.373698e-01	-1.373698e-01
207.644600	0.514869	dec_choice	0.514869	32.000000	n/a	3	-1.367188e-01	-1.367188e-01
207.644600	0.514869	dec_social_accept	0.514869	32.000000	n/a	3	-1.373698e-01	-1.373698e-01
207.644600	0.514869	dec_accept	0.514869	32.000000	n/a	3	-1.367188e-01	-1.367188e-01
207.644600	0.514869	dec_social_low	0.514869	32.000000	n/a	3	-1.367188e-01	-1.367188e-01
207.644600	0.514869	dec_social_accept_low	0.514869	32.000000	n/a	3	-1.367188e-01	-1.367188e-01
216.910800	0.499332	dec_nonsocial_choice	0.499332	16.000000	n/a	8	2.688802e-01	2.688802e-01
216.910800	0.499332	dec_choice	0.499332	16.000000	n/a	8	2.682292e-01	2.682292e-01
216.910800	0.499332	dec_nonsocial_accept	0.499332	16.000000	n/a	8	2.688802e-01	2.688802e-01
216.910800	0.499332	dec_accept	0.499332	16.000000	n/a	8	2.682292e-01	2.682292e-01
216.910800	0.499332	dec_nonsocial_high	0.499332	16.000000	n/a	8	2.682292e-01	2.682292e-01
216.910800	0.499332	dec_nonsocial_accept_high	0.499332	16.000000	n/a	8	2.682292e-01	2.682292e-01
223.743620	0.500107	dec_nonsocial_choice	0.500107	16.000000	n/a	2	-1.061198e-01	-1.061198e-01
223.743620	0.500107	dec_choice	0.500107	16.000000	n/a	2	-1.067708e-01	-1.067708e-01
223.743620	0.500107	dec_nonsocial_accept	0.500107	16.000000	n/a	2	-1.061198e-01	-1.061198e-01
223.743620	0.500107	dec_accept	0.500107	16.000000	n/a	2	-1.067708e-01	-1.067708e-01
223.743620	0.500107	dec_nonsocial_low	0.500107	16.000000	n/a	2	-1.067708e-01	-1.067708e-01
223.743620	0.500107	dec_nonsocial_accept_low	0.500107	16.000000	n/a	2	-1.067708e-01	-1.067708e-01
231.393630	0.483403	dec_nonsocial_choice	0.483403	32.000000	n/a	16	2.688802e-01	2.688802e-01
231.393630	0.483403	dec_choice	0.483403	32.000000	n/a	16	2.682292e-01	2.682292e-01
231.393630	0.483403	dec_nonsocial_accept	0.483403	32.000000	n/a	16	2.688802e-01	2.688802e-01
231.393630	0.483403	dec_accept	0.483403	32.000000	n/a	16	2.682292e-01	2.682292e-01
231.393630	0.483403	dec_nonsocial_high	0.483403	32.000000	n/a	16	2.682292e-01	2.682292e-01
231.393630	0.483403	dec_nonsocial_accept_high	0.483403	32.000000	n/a	16	2.682292e-01	2.682292e-01
242.260180	0.616155	dec_social_choice	0.616155	16.000000	n/a	4	1.888021e-02	1.888021e-02
242.260180	0.616155	dec_choice	0.616155	16.000000	n/a	4	1.953125e-02	1.953125e-02
242.260180	0.616155	dec_social_accept	0.616155	16.000000	n/a	4	1.888021e-02	1.888021e-02
242.260180	0.616155	dec_accept	0.616155	16.000000	n/a	4	1.953125e-02	1.953125e-02
242.260180	0.616155	dec_social_high	0.616155	16.000000	n/a	4	1.953125e-02	1.953125e-02
242.260180	0.616155	dec_social_accept_high	0.616155	16.000000	n/a	4	1.953125e-02	1.953125e-02
249.093380	0.467033	dec_social_choice	0.467033	32.000000	n/a	16	2.688802e-01	2.688802e-01
249.093380	0.467033	dec_choice	0.467033	32.000000	n/a	16	2.695312e-01	2.695312e-01
249.093380	0.467033	dec_social_accept	0.467033	32.000000	n/a	16	2.688802e-01	2.688802e-01
249.093380	0.467033	dec_accept	0.467033	32.000000	n/a	16	2.695312e-01	2.695312e-01
249.093380	0.467033	dec_social_high	0.467033	32.000000	n/a	16	2.695312e-01	2.695312e-01
249.093380	0.467033	dec_social_accept_high	0.467033	32.000000	n/a	16	2.695312e-01	2.695312e-01
258.343660	0.483112	dec_nonsocial_choice	0.483112	16.000000	n/a	8	2.688802e-01	2.688802e-01
258.343660	0.483112	dec_choice	0.483112	16.000000	n/a	8	2.682292e-01	2.682292e-01
258.343660	0.483112	dec_nonsocial_accept	0.483112	16.000000	n/a	8	2.688802e-01	2.688802e-01
258.343660	0.483112	dec_accept	0.483112	16.000000	n/a	8	2.682292e-01	2.682292e-01
258.343660	0.483112	dec_nonsocial_high	0.483112	16.000000	n/a	8	2.682292e-01	2.682292e-01
258.343660	0.483112	dec_nonsocial_accept_high	0.483112	16.000000	n/a	8	2.682292e-01	2.682292e-01
265.993600	0.500089	dec_nonsocial_choice	0.500089	32.000000	n/a	16	2.688802e-01	2.688802e-01
265.993600	0.500089	dec_choice	0.500089	32.000000	n/a	16	2.682292e-01	2.682292e-01
265.993600	0.500089	dec_nonsocial_accept	0.500089	32.000000	n/a	16	2.688802e-01	2.688802e-01
265.993600	0.500089	dec_accept	0.500089	32.000000	n/a	16	2.682292e-01	2.682292e-01
265.993600	0.500089	dec_nonsocial_high	0.500089	32.000000	n/a	16	2.682292e-01	2.682292e-01
265.993600	0.500089	dec_nonsocial_accept_high	0.500089	32.000000	n/a	16	2.682292e-01	2.682292e-01
275.243560	0.499884	dec_nonsocial_choice	0.499884	16.000000	n/a	1	-1.686198e-01	-1.686198e-01
275.243560	0.499884	dec_choice	0.499884	16.000000	n/a	1	-1.692708e-01	-1.692708e-01
275.243560	0.499884	dec_nonsocial_accept	0.499884	16.000000	n/a	1	-1.686198e-01	-1.686198e-01
275.243560	0.499884	dec_accept	0.499884	16.000000	n/a	1	-1.692708e-01	-1.692708e-01
275.243560	0.499884	dec_nonsocial_low	0.499884	16.000000	n/a	1	-1.692708e-01	-1.692708e-01
275.243560	0.499884	dec_nonsocial_accept_low	0.499884	16.000000	n/a	1	-1.692708e-01	-1.692708e-01
282.077600	0.599493	dec_nonsocial_choice	0.599493	16.000000	n/a	4	1.888021e-02	1.888021e-02
282.077600	0.599493	dec_choice	0.599493	16.000000	n/a	4	1.822917e-02	1.822917e-02
282.077600	0.599493	dec_nonsocial_accept	0.599493	16.000000	n/a	4	1.888021e-02	1.888021e-02
282.077600	0.599493	dec_accept	0.599493	16.000000	n/a	4	1.822917e-02	1.822917e-02
282.077600	0.599493	dec_nonsocial_high	0.599493	16.000000	n/a	4	1.822917e-02	1.822917e-02
282.077600	0.599493	dec_nonsocial_accept_high	0.599493	16.000000	n/a	4	1.822917e-02	1.822917e-02
288.909520	0.584066	dec_nonsocial_choice	0.584066	16.000000	n/a	2	-1.061198e-01	-1.061198e-01
288.909520	0.584066	dec_choice	0.584066	16.000000	n/a	2	-1.067708e-01	-1.067708e-01
288.909520	0.584066	dec_nonsocial_accept	0.584066	16.000000	n/a	2	-1.061198e-01	-1.061198e-01
288.909520	0.584066	dec_accept	0.584066	16.000000	n/a	2	-1.067708e-01	-1.067708e-01
288.909520	0.584066	dec_nonsocial_low	0.584066	16.000000	n/a	2	-1.067708e-01	-1.067708e-01
288.909520	0.584066	dec_nonsocial_accept_low	0.584066	16.000000	n/a	2	-1.067708e-01	-1.067708e-01
298.159520	0.500308	dec_social_choice	0.500308	16.000000	n/a	1	-1.686198e-01	-1.686198e-01
298.159520	0.500308	dec_choice	0.500308	16.000000	n/a	1	-1.679688e-01	-1.679688e-01
298.159520	0.500308	dec_social_accept	0.500308	16.000000	n/a	1	-1.686198e-01	-1.686198e-01
298.159520	0.500308	dec_accept	0.500308	16.000000	n/a	1	-1.679688e-01	-1.679688e-01
298.159520	0.500308	dec_social_low	0.500308	16.000000	n/a	1	-1.679688e-01	-1.679688e-01
298.159520	0.500308	dec_social_accept_low	0.500308	16.000000	n/a	1	-1.679688e-01	-1.679688e-01
304.992860	0.583783	dec_nonsocial_choice	0.583783	16.000000	n/a	4	1.888021e-02	1.888021e-02
304.992860	0.583783	dec_choice	0.583783	16.000000	n/a	4	1.822917e-02	1.822917e-02
304.992860	0.583783	dec_nonsocial_accept	0.583783	16.000000	n/a	4	1.888021e-02	1.888021e-02
304.992860	0.583783	dec_accept	0.583783	16.000000	n/a	4	1.822917e-02	1.822917e-02
304.992860	0.583783	dec_nonsocial_high	0.583783	16.000000	n/a	4	1.822917e-02	1.822917e-02
304.992860	0.583783	dec_nonsocial_accept_high	0.583783	16.000000	n/a	4	1.822917e-02	1.822917e-02
312.642400	0.467437	dec_social_choice	0.467437	32.000000	n/a	2	-1.686198e-01	-1.686198e-01
312.642400	0.467437	dec_choice	0.467437	32.000000	n/a	2	-1.679688e-01	-1.679688e-01
312.642400	0.467437	dec_social_accept	0.467437	32.000000	n/a	2	-1.686198e-01	-1.686198e-01
312.642400	0.467437	dec_accept	0.467437	32.000000	n/a	2	-1.679688e-01	-1.679688e-01
312.642400	0.467437	dec_social_low	0.467437	32.000000	n/a	2	-1.679688e-01	-1.679688e-01
312.642400	0.467437	dec_social_accept_low	0.467437	32.000000	n/a	2	-1.679688e-01	-1.679688e-01
320.293670	0.466094	dec_nonsocial_choice	0.466094	16.000000	n/a	4	1.888021e-02	1.888021e-02
320.293670	0.466094	dec_choice	0.466094	16.000000	n/a	4	1.822917e-02	1.822917e-02
320.293670	0.466094	dec_nonsocial_accept	0.466094	16.000000	n/a	4	1.888021e-02	1.888021e-02
320.293670	0.466094	dec_accept	0.466094	16.000000	n/a	4	1.822917e-02	1.822917e-02
320.293670	0.466094	dec_nonsocial_high	0.466094	16.000000	n/a	4	1.822917e-02	1.822917e-02
320.293670	0.466094	dec_nonsocial_accept_high	0.466094	16.000000	n/a	4	1.822917e-02	1.822917e-02
327.125950	0.484142	dec_nonsocial_choice	0.484142	32.000000	n/a	8	1.888021e-02	1.888021e-02
327.125950	0.484142	dec_choice	0.484142	32.000000	n/a	8	1.822917e-02	1.822917e-02
327.125950	0.484142	dec_nonsocial_accept	0.484142	32.000000	n/a	8	1.888021e-02	1.888021e-02
327.125950	0.484142	dec_accept	0.484142	32.000000	n/a	8	1.822917e-02	1.822917e-02
327.125950	0.484142	dec_nonsocial_high	0.484142	32.000000	n/a	8	1.822917e-02	1.822917e-02
327.125950	0.484142	dec_nonsocial_accept_high	0.484142	32.000000	n/a	8	1.822917e-02	1.822917e-02
336.376650	0.566075	dec_nonsocial_choice	0.566075	16.000000	n/a	1	-1.686198e-01	-1.686198e-01
336.376650	0.566075	dec_choice	0.566075	16.000000	n/a	1	-1.692708e-01	-1.692708e-01
336.376650	0.566075	dec_nonsocial_accept	0.566075	16.000000	n/a	1	-1.686198e-01	-1.686198e-01
336.376650	0.566075	dec_accept	0.566075	16.000000	n/a	1	-1.692708e-01	-1.692708e-01
336.376650	0.566075	dec_nonsocial_accept_low	0.566075	16.000000	n/a	1	-1.679688e-01	-1.679688e-01
344.026820	0.483032	dec_nonsocial_choice	0.483032	32.000000	n/a	8	1.888021e-02	1.888021e-02
344.026820	0.483032	dec_choice	0.483032	32.000000	n/a	8	1.822917e-02	1.822917e-02
344.026820	0.483032	dec_nonsocial_accept	0.483032	32.000000	n/a	8	1.888021e-02	1.888021e-02
344.026820	0.483032	dec_accept	0.483032	32.000000	n/a	8	1.822917e-02	1.822917e-02
344.026820	0.483032	dec_nonsocial_accept_high	0.483032	32.000000	n/a	8	1.953125e-02	1.953125e-02
350.859830	0.616344	dec_social_choice	0.616344	16.000000	n/a	8	2.688802e-01	2.688802e-01
350.859830	0.616344	dec_choice	0.616344	16.000000	n/a	8	2.695312e-01	2.695312e-01
350.859830	0.616344	dec_social_accept	0.616344	16.000000	n/a	8	2.688802e-01	2.688802e-01
350.859830	0.616344	dec_accept	0.616344	16.000000	n/a	8	2.695312e-01	2.695312e-01
350.859830	0.616344	dec_social_high	0.616344	16.000000	n/a	8	2.695312e-01	2.695312e-01
350.859830	0.616344	dec_social_accept_high	0.616344	16.000000	n/a	8	2.695312e-01	2.695312e-01
358.510280	0.533395	dec_social_choice	0.533395	32.000000	n/a	16	2.688802e-01	2.688802e-01
358.510280	0.533395	dec_choice	0.533395	32.000000	n/a	16	2.695312e-01	2.695312e-01
358.510280	0.533395	dec_social_accept	0.533395	32.000000	n/a	16	2.688802e-01	2.688802e-01
358.510280	0.533395	dec_accept	0.533395	32.000000	n/a	16	2.695312e-01	2.695312e-01
358.510280	0.533395	dec_social_high	0.533395	32.000000	n/a	16	2.695312e-01	2.695312e-01
358.510280	0.533395	dec_social_accept_high	0.533395	32.000000	n/a	16	2.695312e-01	2.695312e-01
365.344420	0.564737	dec_nonsocial_choice	0.564737	32.000000	n/a	16	2.688802e-01	2.688802e-01
365.344420	0.564737	dec_choice	0.564737	32.000000	n/a	16	2.682292e-01	2.682292e-01
365.344420	0.564737	dec_nonsocial_accept	0.564737	32.000000	n/a	16	2.688802e-01	2.688802e-01
365.344420	0.564737	dec_accept	0.564737	32.000000	n/a	16	2.682292e-01	2.682292e-01
365.344420	0.564737	dec_nonsocial_high	0.564737	32.000000	n/a	16	2.682292e-01	2.682292e-01
365.344420	0.564737	dec_nonsocial_accept_high	0.564737	32.000000	n/a	16	2.682292e-01	2.682292e-01
372.993400	0.533065	dec_nonsocial_choice	0.533065	32.000000	n/a	2	-1.686198e-01	-1.686198e-01
372.993400	0.533065	dec_choice	0.533065	32.000000	n/a	2	-1.692708e-01	-1.692708e-01
372.993400	0.533065	dec_nonsocial_accept	0.533065	32.000000	n/a	2	-1.686198e-01	-1.686198e-01
372.993400	0.533065	dec_accept	0.533065	32.000000	n/a	2	-1.692708e-01	-1.692708e-01
372.993400	0.533065	dec_nonsocial_accept_low	0.533065	32.000000	n/a	2	-1.679688e-01	-1.679688e-01
