onset	duration	trial_type	response_time	Endowment	Endowment_pmod	Decision	Decision_pmod	Offer_pmod
4.595586	2	cue_social	n/a	32	7	n/a	n/a	n/a
4.595586	2	cue_social_high	n/a	32	7	n/a	n/a	n/a
15.378441	2	cue_nonsocial	n/a	32	7	n/a	n/a	n/a
15.378441	2	cue_nonsocial_high	n/a	32	7	n/a	n/a	n/a
24.640066	2	cue_nonsocial	n/a	32	7	n/a	n/a	n/a
24.640066	2	cue_nonsocial_high	n/a	32	7	n/a	n/a	n/a
32.365788	2	cue_social	n/a	16	-9	n/a	n/a	n/a
32.365788	2	cue_social_low	n/a	16	-9	n/a	n/a	n/a
39.122380	2	cue_nonsocial	n/a	32	7	n/a	n/a	n/a
39.122380	2	cue_nonsocial_high	n/a	32	7	n/a	n/a	n/a
45.955883	2	cue_nonsocial	n/a	32	7	n/a	n/a	n/a
45.955883	2	cue_nonsocial_high	n/a	32	7	n/a	n/a	n/a
52.788880	2	cue_nonsocial	n/a	32	7	n/a	n/a	n/a
52.788880	2	cue_nonsocial_high	n/a	32	7	n/a	n/a	n/a
59.672966	2	cue_social	n/a	32	7	n/a	n/a	n/a
59.672966	2	cue_social_high	n/a	32	7	n/a	n/a	n/a
66.565636	2	cue_social	n/a	16	-9	n/a	n/a	n/a
66.565636	2	cue_social_low	n/a	16	-9	n/a	n/a	n/a
78.938736	2	cue_nonsocial	n/a	32	7	n/a	n/a	n/a
78.938736	2	cue_nonsocial_high	n/a	32	7	n/a	n/a	n/a
86.692276	2	cue_social	n/a	32	7	n/a	n/a	n/a
86.692276	2	cue_social_high	n/a	32	7	n/a	n/a	n/a
93.498480	2	cue_social	n/a	16	-9	n/a	n/a	n/a
93.498480	2	cue_social_low	n/a	16	-9	n/a	n/a	n/a
101.143920	2	cue_social	n/a	32	7	n/a	n/a	n/a
101.143920	2	cue_social_high	n/a	32	7	n/a	n/a	n/a
110.419266	2	cue_social	n/a	16	-9	n/a	n/a	n/a
110.419266	2	cue_social_low	n/a	16	-9	n/a	n/a	n/a
121.257160	2	cue_social	n/a	16	-9	n/a	n/a	n/a
121.257160	2	cue_social_low	n/a	16	-9	n/a	n/a	n/a
130.438980	2	cue_nonsocial	n/a	16	-9	n/a	n/a	n/a
130.438980	2	cue_nonsocial_low	n/a	16	-9	n/a	n/a	n/a
137.271870	2	cue_nonsocial	n/a	32	7	n/a	n/a	n/a
137.271870	2	cue_nonsocial_high	n/a	32	7	n/a	n/a	n/a
144.999070	2	cue_social	n/a	32	7	n/a	n/a	n/a
144.999070	2	cue_social_high	n/a	32	7	n/a	n/a	n/a
152.573350	2	cue_nonsocial	n/a	16	-9	n/a	n/a	n/a
152.573350	2	cue_nonsocial_low	n/a	16	-9	n/a	n/a	n/a
159.493820	2	cue_social	n/a	32	7	n/a	n/a	n/a
159.493820	2	cue_social_high	n/a	32	7	n/a	n/a	n/a
166.239490	2	cue_nonsocial	n/a	32	7	n/a	n/a	n/a
166.239490	2	cue_nonsocial_high	n/a	32	7	n/a	n/a	n/a
173.950240	2	cue_social	n/a	16	-9	n/a	n/a	n/a
173.950240	2	cue_social_low	n/a	16	-9	n/a	n/a	n/a
180.721760	2	cue_nonsocial	n/a	16	-9	n/a	n/a	n/a
180.721760	2	cue_nonsocial_low	n/a	16	-9	n/a	n/a	n/a
187.555510	2	cue_nonsocial	n/a	16	-9	n/a	n/a	n/a
187.555510	2	cue_nonsocial_low	n/a	16	-9	n/a	n/a	n/a
195.283920	2	cue_social	n/a	32	7	n/a	n/a	n/a
195.283920	2	cue_social_high	n/a	32	7	n/a	n/a	n/a
202.111340	2	cue_social	n/a	32	7	n/a	n/a	n/a
202.111340	2	cue_social_high	n/a	32	7	n/a	n/a	n/a
208.896150	2	cue_social	n/a	16	-9	n/a	n/a	n/a
208.896150	2	cue_social_low	n/a	16	-9	n/a	n/a	n/a
219.807430	2	cue_social	n/a	16	-9	n/a	n/a	n/a
219.807430	2	cue_social_low	n/a	16	-9	n/a	n/a	n/a
226.624400	2	cue_social	n/a	32	7	n/a	n/a	n/a
226.624400	2	cue_social_high	n/a	32	7	n/a	n/a	n/a
233.417020	2	cue_nonsocial	n/a	32	7	n/a	n/a	n/a
233.417020	2	cue_nonsocial_high	n/a	32	7	n/a	n/a	n/a
240.221500	2	cue_nonsocial	n/a	32	7	n/a	n/a	n/a
240.221500	2	cue_nonsocial_high	n/a	32	7	n/a	n/a	n/a
247.870290	2	cue_social	n/a	32	7	n/a	n/a	n/a
247.870290	2	cue_social_high	n/a	32	7	n/a	n/a	n/a
254.688110	2	cue_nonsocial	n/a	32	7	n/a	n/a	n/a
254.688110	2	cue_nonsocial_high	n/a	32	7	n/a	n/a	n/a
264.046720	2	cue_social	n/a	32	7	n/a	n/a	n/a
264.046720	2	cue_social_high	n/a	32	7	n/a	n/a	n/a
270.882000	2	cue_social	n/a	16	-9	n/a	n/a	n/a
270.882000	2	cue_social_low	n/a	16	-9	n/a	n/a	n/a
278.422270	2	cue_nonsocial	n/a	16	-9	n/a	n/a	n/a
278.422270	2	cue_nonsocial_low	n/a	16	-9	n/a	n/a	n/a
286.071320	2	cue_nonsocial	n/a	16	-9	n/a	n/a	n/a
286.071320	2	cue_nonsocial_low	n/a	16	-9	n/a	n/a	n/a
295.337700	2	cue_nonsocial	n/a	16	-9	n/a	n/a	n/a
295.337700	2	cue_nonsocial_low	n/a	16	-9	n/a	n/a	n/a
302.175800	2	cue_nonsocial	n/a	16	-9	n/a	n/a	n/a
302.175800	2	cue_nonsocial_low	n/a	16	-9	n/a	n/a	n/a
309.074280	2	cue_social	n/a	32	7	n/a	n/a	n/a
309.074280	2	cue_social_high	n/a	32	7	n/a	n/a	n/a
315.913450	2	cue_social	n/a	16	-9	n/a	n/a	n/a
315.913450	2	cue_social_low	n/a	16	-9	n/a	n/a	n/a
322.750950	2	cue_social	n/a	32	7	n/a	n/a	n/a
322.750950	2	cue_social_high	n/a	32	7	n/a	n/a	n/a
329.505860	2	cue_nonsocial	n/a	16	-9	n/a	n/a	n/a
329.505860	2	cue_nonsocial_low	n/a	16	-9	n/a	n/a	n/a
338.755600	2	cue_nonsocial	n/a	16	-9	n/a	n/a	n/a
338.755600	2	cue_nonsocial_low	n/a	16	-9	n/a	n/a	n/a
348.126920	2	cue_social	n/a	32	7	n/a	n/a	n/a
348.126920	2	cue_social_high	n/a	32	7	n/a	n/a	n/a
355.671170	2	cue_nonsocial	n/a	32	7	n/a	n/a	n/a
355.671170	2	cue_nonsocial_high	n/a	32	7	n/a	n/a	n/a
362.504850	2	cue_nonsocial	n/a	16	-9	n/a	n/a	n/a
362.504850	2	cue_nonsocial_low	n/a	16	-9	n/a	n/a	n/a
370.154540	2	cue_nonsocial	n/a	32	7	n/a	n/a	n/a
370.154540	2	cue_nonsocial_high	n/a	32	7	n/a	n/a	n/a
6.511385	0.933401	dec_social_choice	0.933401	32.000000	n/a	0	0	-2.278646e-01
6.511385	0.933401	dec_choice	0.933401	32.000000	n/a	0	0	-2.265625e-01
6.511385	0.933401	dec_social_reject	0.933401	32.000000	n/a	0	0	-4.340278e-02
6.511385	0.933401	dec_reject	0.933401	32.000000	n/a	0	0	-4.166667e-02
6.511385	0.933401	dec_social_reject_low	0.933401	32.000000	n/a	3	-1.328125e-01	-2.265625e-01
17.394873	0.933147	dec_nonsocial_choice	0.933147	32.000000	n/a	0	0	-2.278646e-01
17.394873	0.933147	dec_choice	0.933147	32.000000	n/a	0	0	-2.291667e-01
17.394873	0.933147	dec_nonsocial_reject	0.933147	32.000000	n/a	0	0	1.128472e-01
17.394873	0.933147	dec_reject	0.933147	32.000000	n/a	0	0	1.111111e-01
17.394873	0.933147	dec_nonsocial_reject_low	0.933147	32.000000	n/a	8	1.145833e-01	-1.354167e-01
26.644897	0.832844	dec_nonsocial_choice	0.832844	32.000000	n/a	0	0	-2.278646e-01
26.644897	0.832844	dec_choice	0.832844	32.000000	n/a	0	0	-2.291667e-01
26.644897	0.832844	dec_nonsocial_reject	0.832844	32.000000	n/a	0	0	-7.465278e-02
26.644897	0.832844	dec_reject	0.832844	32.000000	n/a	0	0	-7.638889e-02
26.644897	0.832844	dec_nonsocial_reject_low	0.832844	32.000000	n/a	2	-7.291667e-02	-1.354167e-01
34.293430	1.168149	dec_social_choice	1.168149	16.000000	n/a	8	2.721354e-01	2.721354e-01
34.293430	1.168149	dec_choice	1.168149	16.000000	n/a	8	2.734375e-01	2.734375e-01
34.293430	1.168149	dec_social_accept	1.168149	16.000000	n/a	8	0	0
34.293430	1.168149	dec_accept	1.168149	16.000000	n/a	8	0	0
34.293430	1.168149	dec_social_accept_high	1.168149	16.000000	n/a	8	2.734375e-01	2.734375e-01
41.126923	1.317043	dec_nonsocial_choice	1.317043	32.000000	n/a	16	2.721354e-01	2.721354e-01
41.126923	1.317043	dec_choice	1.317043	32.000000	n/a	16	2.708333e-01	2.708333e-01
41.126923	1.317043	dec_nonsocial_accept	1.317043	32.000000	n/a	16	0	0
41.126923	1.317043	dec_accept	1.317043	32.000000	n/a	16	0	0
41.126923	1.317043	dec_nonsocial_accept_high	1.317043	32.000000	n/a	16	0	0
47.960820	0.833751	dec_nonsocial_choice	0.833751	32.000000	n/a	16	2.721354e-01	2.721354e-01
47.960820	0.833751	dec_choice	0.833751	32.000000	n/a	16	2.708333e-01	2.708333e-01
47.960820	0.833751	dec_nonsocial_accept	0.833751	32.000000	n/a	16	0	0
47.960820	0.833751	dec_accept	0.833751	32.000000	n/a	16	0	0
47.960820	0.833751	dec_nonsocial_accept_high	0.833751	32.000000	n/a	16	0	0
54.794760	0.833155	dec_nonsocial_choice	0.833155	32.000000	n/a	0	0	-2.278646e-01
54.794760	0.833155	dec_choice	0.833155	32.000000	n/a	0	0	-2.291667e-01
54.794760	0.833155	dec_nonsocial_reject	0.833155	32.000000	n/a	0	0	-4.340278e-02
54.794760	0.833155	dec_reject	0.833155	32.000000	n/a	0	0	-4.513889e-02
54.794760	0.833155	dec_nonsocial_reject_low	0.833155	32.000000	n/a	3	-4.166667e-02	-1.354167e-01
61.628605	1.082900	dec_social_choice	1.082900	32.000000	n/a	0	0	-2.278646e-01
61.628605	1.082900	dec_choice	1.082900	32.000000	n/a	0	0	-2.265625e-01
61.628605	1.082900	dec_social_reject	1.082900	32.000000	n/a	0	0	-4.340278e-02
61.628605	1.082900	dec_reject	1.082900	32.000000	n/a	0	0	-4.166667e-02
61.628605	1.082900	dec_social_low	1.082900	32.000000	n/a	0	-2.265625e-01	-2.265625e-01
61.628605	1.082900	dec_social_reject_low	1.082900	32.000000	n/a	3	-1.328125e-01	-2.265625e-01
68.460850	1.466876	dec_social_choice	1.466876	16.000000	n/a	0	0	-2.278646e-01
68.460850	1.466876	dec_choice	1.466876	16.000000	n/a	0	0	-2.265625e-01
68.460850	1.466876	dec_social_reject	1.466876	16.000000	n/a	0	0	1.128472e-01
68.460850	1.466876	dec_reject	1.466876	16.000000	n/a	0	0	1.145833e-01
68.460850	1.466876	dec_social_reject_low	1.466876	16.000000	n/a	4	2.343750e-02	-2.265625e-01
80.944830	1.232947	dec_nonsocial_choice	1.232947	32.000000	n/a	0	0	-2.278646e-01
80.944830	1.232947	dec_choice	1.232947	32.000000	n/a	0	0	-2.291667e-01
80.944830	1.232947	dec_nonsocial_reject	1.232947	32.000000	n/a	0	0	-7.465278e-02
80.944830	1.232947	dec_reject	1.232947	32.000000	n/a	0	0	-7.638889e-02
80.944830	1.232947	dec_nonsocial_low	1.232947	32.000000	n/a	0	-2.291667e-01	-2.291667e-01
80.944830	1.232947	dec_nonsocial_reject_low	1.232947	32.000000	n/a	2	-7.638889e-02	-1.388889e-01
88.594740	0.982528	dec_social_choice	0.982528	32.000000	n/a	0	0	-2.278646e-01
88.594740	0.982528	dec_choice	0.982528	32.000000	n/a	0	0	-2.265625e-01
88.594740	0.982528	dec_social_reject	0.982528	32.000000	n/a	0	0	-4.340278e-02
88.594740	0.982528	dec_reject	0.982528	32.000000	n/a	0	0	-4.166667e-02
88.594740	0.982528	dec_social_reject_low	0.982528	32.000000	n/a	3	-1.328125e-01	-2.265625e-01
95.427250	0.783328	dec_social_choice	0.783328	16.000000	n/a	8	2.721354e-01	2.721354e-01
95.427250	0.783328	dec_choice	0.783328	16.000000	n/a	8	2.734375e-01	2.734375e-01
95.427250	0.783328	dec_social_accept	0.783328	16.000000	n/a	8	0	0
95.427250	0.783328	dec_accept	0.783328	16.000000	n/a	8	0	0
95.427250	0.783328	dec_social_accept_high	0.783328	16.000000	n/a	8	2.734375e-01	2.734375e-01
103.076870	0.933510	dec_social_choice	0.933510	32.000000	n/a	0	0	-2.278646e-01
103.076870	0.933510	dec_choice	0.933510	32.000000	n/a	0	0	-2.265625e-01
103.076870	0.933510	dec_social_reject	0.933510	32.000000	n/a	0	0	-7.465278e-02
103.076870	0.933510	dec_reject	0.933510	32.000000	n/a	0	0	-7.291667e-02
103.076870	0.933510	dec_social_low	0.933510	32.000000	n/a	0	-2.265625e-01	-2.265625e-01
103.076870	0.933510	dec_social_reject_low	0.933510	32.000000	n/a	2	-1.640625e-01	-2.265625e-01
112.327980	0.916408	dec_social_choice	0.916408	16.000000	n/a	0	0	-2.278646e-01
112.327980	0.916408	dec_choice	0.916408	16.000000	n/a	0	0	-2.265625e-01
112.327980	0.916408	dec_social_reject	0.916408	16.000000	n/a	0	0	1.128472e-01
112.327980	0.916408	dec_reject	0.916408	16.000000	n/a	0	0	1.145833e-01
112.327980	0.916408	dec_social_low	0.916408	16.000000	n/a	0	-2.265625e-01	-2.265625e-01
112.327980	0.916408	dec_social_reject_low	0.916408	16.000000	n/a	4	2.343750e-02	-2.265625e-01
123.193810	0.933722	dec_social_choice	0.933722	16.000000	n/a	0	0	-2.278646e-01
123.193810	0.933722	dec_choice	0.933722	16.000000	n/a	0	0	-2.265625e-01
123.193810	0.933722	dec_social_reject	0.933722	16.000000	n/a	0	0	-7.465278e-02
123.193810	0.933722	dec_reject	0.933722	16.000000	n/a	0	0	-7.291667e-02
123.193810	0.933722	dec_social_reject_low	0.933722	16.000000	n/a	1	-1.640625e-01	-2.265625e-01
132.444170	1.750452	dec_nonsocial_choice	1.750452	16.000000	n/a	0	0	-2.278646e-01
132.444170	1.750452	dec_choice	1.750452	16.000000	n/a	0	0	-2.291667e-01
132.444170	1.750452	dec_nonsocial_reject	1.750452	16.000000	n/a	0	0	1.128472e-01
132.444170	1.750452	dec_reject	1.750452	16.000000	n/a	0	0	1.111111e-01
132.444170	1.750452	dec_nonsocial_reject_low	1.750452	16.000000	n/a	4	1.145833e-01	-1.354167e-01
139.277510	1.466396	dec_nonsocial_choice	1.466396	32.000000	n/a	0	0	-2.278646e-01
139.277510	1.466396	dec_choice	1.466396	32.000000	n/a	0	0	-2.291667e-01
139.277510	1.466396	dec_nonsocial_reject	1.466396	32.000000	n/a	0	0	1.128472e-01
139.277510	1.466396	dec_reject	1.466396	32.000000	n/a	0	0	1.111111e-01
139.277510	1.466396	dec_nonsocial_low	1.466396	32.000000	n/a	0	-2.291667e-01	-2.291667e-01
139.277510	1.466396	dec_nonsocial_reject_low	1.466396	32.000000	n/a	8	1.111111e-01	-1.388889e-01
146.926700	1.117506	dec_social_choice	1.117506	32.000000	n/a	0	0	-2.278646e-01
146.926700	1.117506	dec_choice	1.117506	32.000000	n/a	0	0	-2.265625e-01
146.926700	1.117506	dec_social_reject	1.117506	32.000000	n/a	0	0	-4.340278e-02
146.926700	1.117506	dec_reject	1.117506	32.000000	n/a	0	0	-4.166667e-02
146.926700	1.117506	dec_social_low	1.117506	32.000000	n/a	0	-2.265625e-01	-2.265625e-01
146.926700	1.117506	dec_social_reject_low	1.117506	32.000000	n/a	3	-1.328125e-01	-2.265625e-01
154.577620	1.233394	dec_nonsocial_choice	1.233394	16.000000	n/a	0	0	-2.278646e-01
154.577620	1.233394	dec_choice	1.233394	16.000000	n/a	0	0	-2.291667e-01
154.577620	1.233394	dec_nonsocial_reject	1.233394	16.000000	n/a	0	0	-7.465278e-02
154.577620	1.233394	dec_reject	1.233394	16.000000	n/a	0	0	-7.638889e-02
154.577620	1.233394	dec_nonsocial_reject_low	1.233394	16.000000	n/a	1	-7.291667e-02	-1.354167e-01
161.410720	0.849992	dec_social_choice	0.849992	32.000000	n/a	16	2.721354e-01	2.721354e-01
161.410720	0.849992	dec_choice	0.849992	32.000000	n/a	16	2.734375e-01	2.734375e-01
161.410720	0.849992	dec_social_accept	0.849992	32.000000	n/a	16	0	0
161.410720	0.849992	dec_accept	0.849992	32.000000	n/a	16	0	0
161.410720	0.849992	dec_social_accept_high	0.849992	32.000000	n/a	16	2.734375e-01	2.734375e-01
168.243990	0.950087	dec_nonsocial_choice	0.950087	32.000000	n/a	0	0	-2.278646e-01
168.243990	0.950087	dec_choice	0.950087	32.000000	n/a	0	0	-2.291667e-01
168.243990	0.950087	dec_nonsocial_reject	0.950087	32.000000	n/a	0	0	1.128472e-01
168.243990	0.950087	dec_reject	0.950087	32.000000	n/a	0	0	1.111111e-01
168.243990	0.950087	dec_nonsocial_low	0.950087	32.000000	n/a	0	-2.291667e-01	-2.291667e-01
168.243990	0.950087	dec_nonsocial_reject_low	0.950087	32.000000	n/a	8	1.111111e-01	-1.388889e-01
175.895100	0.949202	dec_social_choice	0.949202	16.000000	n/a	0	0	-2.278646e-01
175.895100	0.949202	dec_choice	0.949202	16.000000	n/a	0	0	-2.265625e-01
175.895100	0.949202	dec_social_reject	0.949202	16.000000	n/a	0	0	-7.465278e-02
175.895100	0.949202	dec_reject	0.949202	16.000000	n/a	0	0	-7.291667e-02
175.895100	0.949202	dec_social_low	0.949202	16.000000	n/a	0	-2.265625e-01	-2.265625e-01
175.895100	0.949202	dec_social_reject_low	0.949202	16.000000	n/a	1	-1.640625e-01	-2.265625e-01
182.727340	1.666248	dec_nonsocial_choice	1.666248	16.000000	n/a	0	0	-2.278646e-01
182.727340	1.666248	dec_choice	1.666248	16.000000	n/a	0	0	-2.291667e-01
182.727340	1.666248	dec_nonsocial_reject	1.666248	16.000000	n/a	0	0	1.128472e-01
182.727340	1.666248	dec_reject	1.666248	16.000000	n/a	0	0	1.111111e-01
182.727340	1.666248	dec_nonsocial_reject_low	1.666248	16.000000	n/a	4	1.145833e-01	-1.354167e-01
189.560670	0.800124	dec_nonsocial_choice	0.800124	16.000000	n/a	0	0	-2.278646e-01
189.560670	0.800124	dec_choice	0.800124	16.000000	n/a	0	0	-2.291667e-01
189.560670	0.800124	dec_nonsocial_reject	0.800124	16.000000	n/a	0	0	-7.465278e-02
189.560670	0.800124	dec_reject	0.800124	16.000000	n/a	0	0	-7.638889e-02
189.560670	0.800124	dec_nonsocial_reject_low	0.800124	16.000000	n/a	1	-7.291667e-02	-1.354167e-01
197.193740	0.900308	dec_social_choice	0.900308	32.000000	n/a	0	0	-2.278646e-01
197.193740	0.900308	dec_choice	0.900308	32.000000	n/a	0	0	-2.265625e-01
197.193740	0.900308	dec_social_reject	0.900308	32.000000	n/a	0	0	1.128472e-01
197.193740	0.900308	dec_reject	0.900308	32.000000	n/a	0	0	1.145833e-01
197.193740	0.900308	dec_social_low	0.900308	32.000000	n/a	0	-2.265625e-01	-2.265625e-01
197.193740	0.900308	dec_social_reject_low	0.900308	32.000000	n/a	8	2.343750e-02	-2.265625e-01
204.028320	0.915139	dec_social_choice	0.915139	32.000000	n/a	0	0	-2.278646e-01
204.028320	0.915139	dec_choice	0.915139	32.000000	n/a	0	0	-2.265625e-01
204.028320	0.915139	dec_social_reject	0.915139	32.000000	n/a	0	0	-4.340278e-02
204.028320	0.915139	dec_reject	0.915139	32.000000	n/a	0	0	-4.166667e-02
204.028320	0.915139	dec_social_low	0.915139	32.000000	n/a	0	-2.265625e-01	-2.265625e-01
204.028320	0.915139	dec_social_reject_low	0.915139	32.000000	n/a	3	-1.328125e-01	-2.265625e-01
210.860630	0.916799	dec_social_choice	0.916799	16.000000	n/a	0	0	-2.278646e-01
210.860630	0.916799	dec_choice	0.916799	16.000000	n/a	0	0	-2.265625e-01
210.860630	0.916799	dec_social_reject	0.916799	16.000000	n/a	0	0	-7.465278e-02
210.860630	0.916799	dec_reject	0.916799	16.000000	n/a	0	0	-7.291667e-02
210.860630	0.916799	dec_social_low	0.916799	16.000000	n/a	0	-2.265625e-01	-2.265625e-01
210.860630	0.916799	dec_social_reject_low	0.916799	16.000000	n/a	1	-1.640625e-01	-2.265625e-01
221.726580	1.050630	dec_social_choice	1.050630	16.000000	n/a	0	0	-2.278646e-01
221.726580	1.050630	dec_choice	1.050630	16.000000	n/a	0	0	-2.265625e-01
221.726580	1.050630	dec_social_reject	1.050630	16.000000	n/a	0	0	1.128472e-01
221.726580	1.050630	dec_reject	1.050630	16.000000	n/a	0	0	1.145833e-01
221.726580	1.050630	dec_social_reject_low	1.050630	16.000000	n/a	4	2.343750e-02	-2.265625e-01
228.560100	0.866612	dec_social_choice	0.866612	32.000000	n/a	16	2.721354e-01	2.721354e-01
228.560100	0.866612	dec_choice	0.866612	32.000000	n/a	16	2.734375e-01	2.734375e-01
228.560100	0.866612	dec_social_accept	0.866612	32.000000	n/a	16	0	0
228.560100	0.866612	dec_accept	0.866612	32.000000	n/a	16	0	0
228.560100	0.866612	dec_social_accept_high	0.866612	32.000000	n/a	16	2.734375e-01	2.734375e-01
235.393480	0.917240	dec_nonsocial_choice	0.917240	32.000000	n/a	0	0	-2.278646e-01
235.393480	0.917240	dec_choice	0.917240	32.000000	n/a	0	0	-2.291667e-01
235.393480	0.917240	dec_nonsocial_reject	0.917240	32.000000	n/a	0	0	-4.340278e-02
235.393480	0.917240	dec_reject	0.917240	32.000000	n/a	0	0	-4.513889e-02
235.393480	0.917240	dec_nonsocial_reject_low	0.917240	32.000000	n/a	3	-4.166667e-02	-1.354167e-01
242.227100	1.250190	dec_nonsocial_choice	1.250190	32.000000	n/a	0	0	-2.278646e-01
242.227100	1.250190	dec_choice	1.250190	32.000000	n/a	0	0	-2.291667e-01
242.227100	1.250190	dec_nonsocial_reject	1.250190	32.000000	n/a	0	0	-7.465278e-02
242.227100	1.250190	dec_reject	1.250190	32.000000	n/a	0	0	-7.638889e-02
242.227100	1.250190	dec_nonsocial_low	1.250190	32.000000	n/a	0	-2.291667e-01	-2.291667e-01
242.227100	1.250190	dec_nonsocial_reject_low	1.250190	32.000000	n/a	2	-7.638889e-02	-1.388889e-01
249.861040	1.315575	dec_social_choice	1.315575	32.000000	n/a	0	0	-2.278646e-01
249.861040	1.315575	dec_choice	1.315575	32.000000	n/a	0	0	-2.265625e-01
249.861040	1.315575	dec_social_reject	1.315575	32.000000	n/a	0	0	-7.465278e-02
249.861040	1.315575	dec_reject	1.315575	32.000000	n/a	0	0	-7.291667e-02
249.861040	1.315575	dec_social_reject_low	1.315575	32.000000	n/a	2	-1.640625e-01	-2.265625e-01
256.694200	1.216028	dec_nonsocial_choice	1.216028	32.000000	n/a	16	2.721354e-01	2.721354e-01
256.694200	1.216028	dec_choice	1.216028	32.000000	n/a	16	2.708333e-01	2.708333e-01
256.694200	1.216028	dec_nonsocial_accept	1.216028	32.000000	n/a	16	0	0
256.694200	1.216028	dec_accept	1.216028	32.000000	n/a	16	0	0
256.694200	1.216028	dec_nonsocial_accept_high	1.216028	32.000000	n/a	16	0	0
265.961030	0.766079	dec_social_choice	0.766079	32.000000	n/a	0	0	-2.278646e-01
265.961030	0.766079	dec_choice	0.766079	32.000000	n/a	0	0	-2.265625e-01
265.961030	0.766079	dec_social_reject	0.766079	32.000000	n/a	0	0	-4.340278e-02
265.961030	0.766079	dec_reject	0.766079	32.000000	n/a	0	0	-4.166667e-02
265.961030	0.766079	dec_social_reject_low	0.766079	32.000000	n/a	3	-1.328125e-01	-2.265625e-01
272.793400	0.734005	dec_social_choice	0.734005	16.000000	n/a	0	0	-2.278646e-01
272.793400	0.734005	dec_choice	0.734005	16.000000	n/a	0	0	-2.265625e-01
272.793400	0.734005	dec_social_reject	0.734005	16.000000	n/a	0	0	1.128472e-01
272.793400	0.734005	dec_reject	0.734005	16.000000	n/a	0	0	1.145833e-01
272.793400	0.734005	dec_social_reject_low	0.734005	16.000000	n/a	4	2.343750e-02	-2.265625e-01
280.427300	1.133080	dec_nonsocial_choice	1.133080	16.000000	n/a	0	0	-2.278646e-01
280.427300	1.133080	dec_choice	1.133080	16.000000	n/a	0	0	-2.291667e-01
280.427300	1.133080	dec_nonsocial_reject	1.133080	16.000000	n/a	0	0	-1.215278e-02
280.427300	1.133080	dec_reject	1.133080	16.000000	n/a	0	0	-1.388889e-02
280.427300	1.133080	dec_nonsocial_reject_low	1.133080	16.000000	n/a	2	-1.041667e-02	-1.354167e-01
288.077640	2.815235	dec_nonsocial_choice	2.815235	16.000000	n/a	0	0	-2.278646e-01
288.077640	2.815235	dec_choice	2.815235	16.000000	n/a	0	0	-2.291667e-01
288.077640	2.815235	dec_nonsocial_reject	2.815235	16.000000	n/a	0	0	-1.215278e-02
288.077640	2.815235	dec_reject	2.815235	16.000000	n/a	0	0	-1.388889e-02
288.077640	2.815235	dec_nonsocial_reject_low	2.815235	16.000000	n/a	2	-1.041667e-02	-1.354167e-01
297.344570	1.150235	dec_nonsocial_choice	1.150235	16.000000	n/a	0	0	-2.278646e-01
297.344570	1.150235	dec_choice	1.150235	16.000000	n/a	0	0	-2.291667e-01
297.344570	1.150235	dec_nonsocial_reject	1.150235	16.000000	n/a	0	0	1.128472e-01
297.344570	1.150235	dec_reject	1.150235	16.000000	n/a	0	0	1.111111e-01
297.344570	1.150235	dec_nonsocial_reject_low	1.150235	16.000000	n/a	4	1.145833e-01	-1.354167e-01
304.177500	1.149466	dec_nonsocial_choice	1.149466	16.000000	n/a	8	2.721354e-01	2.721354e-01
304.177500	1.149466	dec_choice	1.149466	16.000000	n/a	8	2.708333e-01	2.708333e-01
304.177500	1.149466	dec_nonsocial_accept	1.149466	16.000000	n/a	8	0	0
304.177500	1.149466	dec_accept	1.149466	16.000000	n/a	8	0	0
304.177500	1.149466	dec_nonsocial_accept_high	1.149466	16.000000	n/a	8	0	0
311.010300	0.783332	dec_social_choice	0.783332	32.000000	n/a	0	0	-2.278646e-01
311.010300	0.783332	dec_choice	0.783332	32.000000	n/a	0	0	-2.265625e-01
311.010300	0.783332	dec_social_reject	0.783332	32.000000	n/a	0	0	-7.465278e-02
311.010300	0.783332	dec_reject	0.783332	32.000000	n/a	0	0	-7.291667e-02
311.010300	0.783332	dec_social_reject_low	0.783332	32.000000	n/a	2	-1.640625e-01	-2.265625e-01
317.843350	0.867125	dec_social_choice	0.867125	16.000000	n/a	8	2.721354e-01	2.721354e-01
317.843350	0.867125	dec_choice	0.867125	16.000000	n/a	8	2.734375e-01	2.734375e-01
317.843350	0.867125	dec_social_accept	0.867125	16.000000	n/a	8	0	0
317.843350	0.867125	dec_accept	0.867125	16.000000	n/a	8	0	0
317.843350	0.867125	dec_social_high	0.867125	16.000000	n/a	8	2.734375e-01	2.734375e-01
317.843350	0.867125	dec_social_accept_high	0.867125	16.000000	n/a	8	2.734375e-01	2.734375e-01
324.676970	2.900234	dec_social_choice	2.900234	32.000000	n/a	16	2.721354e-01	2.721354e-01
324.676970	2.900234	dec_choice	2.900234	32.000000	n/a	16	2.734375e-01	2.734375e-01
324.676970	2.900234	dec_social_accept	2.900234	32.000000	n/a	16	0	0
324.676970	2.900234	dec_accept	2.900234	32.000000	n/a	16	0	0
324.676970	2.900234	dec_social_accept_high	2.900234	32.000000	n/a	16	2.734375e-01	2.734375e-01
331.510350	0.633117	dec_nonsocial_choice	0.633117	16.000000	n/a	8	2.721354e-01	2.721354e-01
331.510350	0.633117	dec_choice	0.633117	16.000000	n/a	8	2.708333e-01	2.708333e-01
331.510350	0.633117	dec_nonsocial_accept	0.633117	16.000000	n/a	8	0	0
331.510350	0.633117	dec_accept	0.633117	16.000000	n/a	8	0	0
331.510350	0.633117	dec_nonsocial_accept_high	0.633117	16.000000	n/a	8	0	0
340.776640	0.750487	dec_nonsocial_choice	0.750487	16.000000	n/a	8	2.721354e-01	2.721354e-01
340.776640	0.750487	dec_choice	0.750487	16.000000	n/a	8	2.708333e-01	2.708333e-01
340.776640	0.750487	dec_nonsocial_accept	0.750487	16.000000	n/a	8	0	0
340.776640	0.750487	dec_accept	0.750487	16.000000	n/a	8	0	0
340.776640	0.750487	dec_nonsocial_accept_high	0.750487	16.000000	n/a	8	0	0
350.027440	1.432603	dec_social_choice	1.432603	32.000000	n/a	0	0	-2.278646e-01
350.027440	1.432603	dec_choice	1.432603	32.000000	n/a	0	0	-2.265625e-01
350.027440	1.432603	dec_social_reject	1.432603	32.000000	n/a	0	0	1.128472e-01
350.027440	1.432603	dec_reject	1.432603	32.000000	n/a	0	0	1.145833e-01
350.027440	1.432603	dec_social_low	1.432603	32.000000	n/a	0	-2.265625e-01	-2.265625e-01
350.027440	1.432603	dec_social_reject_low	1.432603	32.000000	n/a	8	2.343750e-02	-2.265625e-01
357.676360	1.000204	dec_nonsocial_choice	1.000204	32.000000	n/a	0	0	-2.278646e-01
357.676360	1.000204	dec_choice	1.000204	32.000000	n/a	0	0	-2.291667e-01
357.676360	1.000204	dec_nonsocial_reject	1.000204	32.000000	n/a	0	0	-4.340278e-02
357.676360	1.000204	dec_reject	1.000204	32.000000	n/a	0	0	-4.513889e-02
357.676360	1.000204	dec_nonsocial_low	1.000204	32.000000	n/a	0	-2.291667e-01	-2.291667e-01
357.676360	1.000204	dec_nonsocial_reject_low	1.000204	32.000000	n/a	3	-4.513889e-02	-1.388889e-01
364.510860	1.015212	dec_nonsocial_choice	1.015212	16.000000	n/a	0	0	-2.278646e-01
364.510860	1.015212	dec_choice	1.015212	16.000000	n/a	0	0	-2.291667e-01
364.510860	1.015212	dec_nonsocial_reject	1.015212	16.000000	n/a	0	0	-7.465278e-02
364.510860	1.015212	dec_reject	1.015212	16.000000	n/a	0	0	-7.638889e-02
364.510860	1.015212	dec_nonsocial_reject_low	1.015212	16.000000	n/a	1	-7.291667e-02	-1.354167e-01
372.160300	0.982782	dec_nonsocial_choice	0.982782	32.000000	n/a	0	0	-2.278646e-01
372.160300	0.982782	dec_choice	0.982782	32.000000	n/a	0	0	-2.291667e-01
372.160300	0.982782	dec_nonsocial_reject	0.982782	32.000000	n/a	0	0	-4.340278e-02
372.160300	0.982782	dec_reject	0.982782	32.000000	n/a	0	0	-4.513889e-02
372.160300	0.982782	dec_nonsocial_low	0.982782	32.000000	n/a	0	-2.291667e-01	-2.291667e-01
372.160300	0.982782	dec_nonsocial_reject_low	0.982782	32.000000	n/a	3	-4.513889e-02	-1.388889e-01
