onset	duration	trial_type	response_time	Endowment	Endowment_pmod	Decision	Decision_pmod	Offer_pmod
4.617624	2	cue_social	n/a	32	7	n/a	n/a	n/a
4.617624	2	cue_social_high	n/a	32	9	n/a	n/a	n/a
12.155521	2	cue_nonsocial	n/a	32	9	n/a	n/a	n/a
12.155521	2	cue_nonsocial_high	n/a	32	7	n/a	n/a	n/a
19.102190	2	cue_social	n/a	16	-9	n/a	n/a	n/a
19.102190	2	cue_social_low	n/a	16	-7	n/a	n/a	n/a
25.935140	2	cue_social	n/a	32	7	n/a	n/a	n/a
25.935140	2	cue_social_high	n/a	32	9	n/a	n/a	n/a
32.756382	2	cue_social	n/a	16	-9	n/a	n/a	n/a
32.756382	2	cue_social_low	n/a	16	-7	n/a	n/a	n/a
39.484480	2	cue_social	n/a	32	7	n/a	n/a	n/a
39.484480	2	cue_social_high	n/a	32	9	n/a	n/a	n/a
47.254955	2	cue_social	n/a	32	7	n/a	n/a	n/a
47.254955	2	cue_social_high	n/a	32	9	n/a	n/a	n/a
56.391250	2	cue_social	n/a	16	-9	n/a	n/a	n/a
56.391250	2	cue_social_low	n/a	16	-7	n/a	n/a	n/a
64.037580	2	cue_nonsocial	n/a	32	9	n/a	n/a	n/a
64.037580	2	cue_nonsocial_high	n/a	32	7	n/a	n/a	n/a
71.751210	2	cue_social	n/a	16	-9	n/a	n/a	n/a
71.751210	2	cue_social_low	n/a	16	-7	n/a	n/a	n/a
78.520910	2	cue_nonsocial	n/a	32	9	n/a	n/a	n/a
78.520910	2	cue_nonsocial_high	n/a	32	7	n/a	n/a	n/a
85.449490	2	cue_social	n/a	32	7	n/a	n/a	n/a
85.449490	2	cue_social_high	n/a	32	9	n/a	n/a	n/a
93.004000	2	cue_nonsocial	n/a	32	9	n/a	n/a	n/a
93.004000	2	cue_nonsocial_high	n/a	32	7	n/a	n/a	n/a
99.838005	2	cue_nonsocial	n/a	16	-7	n/a	n/a	n/a
99.838005	2	cue_nonsocial_low	n/a	16	-9	n/a	n/a	n/a
107.578316	2	cue_social	n/a	32	7	n/a	n/a	n/a
107.578316	2	cue_social_high	n/a	32	9	n/a	n/a	n/a
114.320880	2	cue_nonsocial	n/a	32	9	n/a	n/a	n/a
114.320880	2	cue_nonsocial_high	n/a	32	7	n/a	n/a	n/a
123.587490	2	cue_nonsocial	n/a	16	-7	n/a	n/a	n/a
123.587490	2	cue_nonsocial_low	n/a	16	-9	n/a	n/a	n/a
130.508030	2	cue_social	n/a	16	-9	n/a	n/a	n/a
130.508030	2	cue_social_low	n/a	16	-7	n/a	n/a	n/a
137.254240	2	cue_nonsocial	n/a	16	-7	n/a	n/a	n/a
137.254240	2	cue_nonsocial_low	n/a	16	-9	n/a	n/a	n/a
146.520310	2	cue_nonsocial	n/a	32	9	n/a	n/a	n/a
146.520310	2	cue_nonsocial_high	n/a	32	7	n/a	n/a	n/a
153.363660	2	cue_social	n/a	16	-9	n/a	n/a	n/a
153.363660	2	cue_social_low	n/a	16	-7	n/a	n/a	n/a
161.004010	2	cue_nonsocial	n/a	16	-7	n/a	n/a	n/a
161.004010	2	cue_nonsocial_low	n/a	16	-9	n/a	n/a	n/a
167.836960	2	cue_nonsocial	n/a	16	-7	n/a	n/a	n/a
167.836960	2	cue_nonsocial_low	n/a	16	-9	n/a	n/a	n/a
174.767840	2	cue_social	n/a	16	-9	n/a	n/a	n/a
174.767840	2	cue_social_low	n/a	16	-7	n/a	n/a	n/a
185.538150	2	cue_nonsocial	n/a	32	9	n/a	n/a	n/a
185.538150	2	cue_nonsocial_high	n/a	32	7	n/a	n/a	n/a
192.370530	2	cue_nonsocial	n/a	16	-7	n/a	n/a	n/a
192.370530	2	cue_nonsocial_low	n/a	16	-9	n/a	n/a	n/a
204.853820	2	cue_nonsocial	n/a	16	-7	n/a	n/a	n/a
204.853820	2	cue_nonsocial_low	n/a	16	-9	n/a	n/a	n/a
212.487350	2	cue_nonsocial	n/a	16	-7	n/a	n/a	n/a
212.487350	2	cue_nonsocial_low	n/a	16	-9	n/a	n/a	n/a
223.370590	2	cue_nonsocial	n/a	16	-7	n/a	n/a	n/a
223.370590	2	cue_nonsocial_low	n/a	16	-9	n/a	n/a	n/a
231.104260	2	cue_social	n/a	32	7	n/a	n/a	n/a
231.104260	2	cue_social_high	n/a	32	9	n/a	n/a	n/a
238.758260	2	cue_social	n/a	32	7	n/a	n/a	n/a
238.758260	2	cue_social_high	n/a	32	9	n/a	n/a	n/a
247.920750	2	cue_nonsocial	n/a	16	-7	n/a	n/a	n/a
247.920750	2	cue_nonsocial_low	n/a	16	-9	n/a	n/a	n/a
254.875690	2	cue_social	n/a	32	7	n/a	n/a	n/a
254.875690	2	cue_social_high	n/a	32	9	n/a	n/a	n/a
262.420470	2	cue_nonsocial	n/a	32	9	n/a	n/a	n/a
262.420470	2	cue_nonsocial_high	n/a	32	7	n/a	n/a	n/a
269.353800	2	cue_social	n/a	16	-9	n/a	n/a	n/a
269.353800	2	cue_social_low	n/a	16	-7	n/a	n/a	n/a
276.904270	2	cue_nonsocial	n/a	32	9	n/a	n/a	n/a
276.904270	2	cue_nonsocial_high	n/a	32	7	n/a	n/a	n/a
283.828600	2	cue_social	n/a	32	7	n/a	n/a	n/a
283.828600	2	cue_social_high	n/a	32	9	n/a	n/a	n/a
290.570560	2	cue_nonsocial	n/a	16	-7	n/a	n/a	n/a
290.570560	2	cue_nonsocial_low	n/a	16	-9	n/a	n/a	n/a
299.836800	2	cue_nonsocial	n/a	16	-7	n/a	n/a	n/a
299.836800	2	cue_nonsocial_low	n/a	16	-9	n/a	n/a	n/a
310.711430	2	cue_social	n/a	32	7	n/a	n/a	n/a
310.711430	2	cue_social_high	n/a	32	9	n/a	n/a	n/a
317.536620	2	cue_nonsocial	n/a	32	9	n/a	n/a	n/a
317.536620	2	cue_nonsocial_high	n/a	32	7	n/a	n/a	n/a
325.276860	2	cue_social	n/a	16	-9	n/a	n/a	n/a
325.276860	2	cue_social_low	n/a	16	-7	n/a	n/a	n/a
334.453980	2	cue_social	n/a	32	7	n/a	n/a	n/a
334.453980	2	cue_social_high	n/a	32	9	n/a	n/a	n/a
341.286900	2	cue_nonsocial	n/a	16	-7	n/a	n/a	n/a
341.286900	2	cue_nonsocial_low	n/a	16	-9	n/a	n/a	n/a
348.119780	2	cue_nonsocial	n/a	32	9	n/a	n/a	n/a
348.119780	2	cue_nonsocial_high	n/a	32	7	n/a	n/a	n/a
354.965300	2	cue_social	n/a	16	-9	n/a	n/a	n/a
354.965300	2	cue_social_low	n/a	16	-7	n/a	n/a	n/a
364.323120	2	cue_social	n/a	16	-9	n/a	n/a	n/a
364.323120	2	cue_social_low	n/a	16	-7	n/a	n/a	n/a
371.108300	2	cue_social	n/a	32	7	n/a	n/a	n/a
371.108300	2	cue_social_high	n/a	32	9	n/a	n/a	n/a
6.510361	1.449580	dec_social_choice	1.449580	32.000000	n/a	8	1.953125e-02	1.953125e-02
6.510361	1.449580	dec_choice	1.449580	32.000000	n/a	8	1.953125e-02	1.953125e-02
6.510361	1.449580	dec_social_accept	1.449580	32.000000	n/a	8	4.261364e-03	4.261364e-03
6.510361	1.449580	dec_accept	1.449580	32.000000	n/a	8	4.261364e-03	4.261364e-03
6.510361	1.449580	dec_social_accept_high	1.449580	32.000000	n/a	8	1.953125e-02	1.953125e-02
14.159904	1.566179	dec_nonsocial_choice	1.566179	32.000000	n/a	8	1.953125e-02	1.953125e-02
14.159904	1.566179	dec_choice	1.566179	32.000000	n/a	8	1.953125e-02	1.953125e-02
14.159904	1.566179	dec_nonsocial_accept	1.566179	32.000000	n/a	8	4.261364e-03	4.261364e-03
14.159904	1.566179	dec_accept	1.566179	32.000000	n/a	8	4.261364e-03	4.261364e-03
14.159904	1.566179	dec_nonsocial_accept_high	1.566179	32.000000	n/a	8	4.261364e-03	4.261364e-03
20.993967	1.349557	dec_social_choice	1.349557	16.000000	n/a	4	1.953125e-02	1.953125e-02
20.993967	1.349557	dec_choice	1.349557	16.000000	n/a	4	1.953125e-02	1.953125e-02
20.993967	1.349557	dec_social_accept	1.349557	16.000000	n/a	4	4.261364e-03	4.261364e-03
20.993967	1.349557	dec_accept	1.349557	16.000000	n/a	4	4.261364e-03	4.261364e-03
20.993967	1.349557	dec_social_accept_high	1.349557	16.000000	n/a	4	1.953125e-02	1.953125e-02
27.827430	1.682304	dec_social_choice	1.682304	32.000000	n/a	3	-1.367188e-01	-1.367188e-01
27.827430	1.682304	dec_choice	1.682304	32.000000	n/a	3	-1.367188e-01	-1.367188e-01
27.827430	1.682304	dec_social_accept	1.682304	32.000000	n/a	3	-1.519886e-01	-1.519886e-01
27.827430	1.682304	dec_accept	1.682304	32.000000	n/a	3	-1.519886e-01	-1.519886e-01
27.827430	1.682304	dec_social_low	1.682304	32.000000	n/a	3	-1.367188e-01	-1.367188e-01
27.827430	1.682304	dec_social_accept_low	1.682304	32.000000	n/a	3	-1.367188e-01	-1.367188e-01
34.659866	1.900020	dec_social_choice	1.900020	16.000000	n/a	2	-1.054688e-01	-1.054688e-01
34.659866	1.900020	dec_choice	1.900020	16.000000	n/a	2	-1.054688e-01	-1.054688e-01
34.659866	1.900020	dec_social_accept	1.900020	16.000000	n/a	2	-1.207386e-01	-1.207386e-01
34.659866	1.900020	dec_accept	1.900020	16.000000	n/a	2	-1.207386e-01	-1.207386e-01
34.659866	1.900020	dec_social_low	1.900020	16.000000	n/a	2	-1.054688e-01	-1.054688e-01
34.659866	1.900020	dec_social_accept_low	1.900020	16.000000	n/a	2	-1.054688e-01	-1.054688e-01
41.494057	1.932869	dec_social_choice	1.932869	32.000000	n/a	2	-1.679688e-01	-1.679688e-01
41.494057	1.932869	dec_choice	1.932869	32.000000	n/a	2	-1.679688e-01	-1.679688e-01
41.494057	1.932869	dec_social_accept	1.932869	32.000000	n/a	2	-1.832386e-01	-1.832386e-01
41.494057	1.932869	dec_accept	1.932869	32.000000	n/a	2	-1.832386e-01	-1.832386e-01
41.494057	1.932869	dec_social_low	1.932869	32.000000	n/a	2	-1.679688e-01	-1.679688e-01
41.494057	1.932869	dec_social_accept_low	1.932869	32.000000	n/a	2	-1.679688e-01	-1.679688e-01
49.143333	1.049837	dec_social_choice	1.049837	32.000000	n/a	8	1.953125e-02	1.953125e-02
49.143333	1.049837	dec_choice	1.049837	32.000000	n/a	8	1.953125e-02	1.953125e-02
49.143333	1.049837	dec_social_accept	1.049837	32.000000	n/a	8	4.261364e-03	4.261364e-03
49.143333	1.049837	dec_accept	1.049837	32.000000	n/a	8	4.261364e-03	4.261364e-03
49.143333	1.049837	dec_social_accept_high	1.049837	32.000000	n/a	8	1.953125e-02	1.953125e-02
58.393867	1.032623	dec_social_choice	1.032623	16.000000	n/a	8	2.695312e-01	2.695312e-01
58.393867	1.032623	dec_choice	1.032623	16.000000	n/a	8	2.695312e-01	2.695312e-01
58.393867	1.032623	dec_social_accept	1.032623	16.000000	n/a	8	2.542614e-01	2.542614e-01
58.393867	1.032623	dec_accept	1.032623	16.000000	n/a	8	2.542614e-01	2.542614e-01
58.393867	1.032623	dec_social_accept_high	1.032623	16.000000	n/a	8	2.695312e-01	2.695312e-01
66.043050	1.500049	dec_nonsocial_choice	1.500049	32.000000	n/a	0	0	-2.304688e-01
66.043050	1.500049	dec_choice	1.500049	32.000000	n/a	0	0	-2.304688e-01
66.043050	1.500049	dec_nonsocial_reject	1.500049	32.000000	n/a	0	0	0
66.043050	1.500049	dec_reject	1.500049	32.000000	n/a	0	0	0
66.043050	1.500049	dec_nonsocial_reject_low	1.500049	32.000000	n/a	2	0	-6.250000e-02
73.692770	1.600071	dec_social_choice	1.600071	16.000000	n/a	2	-1.054688e-01	-1.054688e-01
73.692770	1.600071	dec_choice	1.600071	16.000000	n/a	2	-1.054688e-01	-1.054688e-01
73.692770	1.600071	dec_social_accept	1.600071	16.000000	n/a	2	-1.207386e-01	-1.207386e-01
73.692770	1.600071	dec_accept	1.600071	16.000000	n/a	2	-1.207386e-01	-1.207386e-01
73.692770	1.600071	dec_social_low	1.600071	16.000000	n/a	2	-1.054688e-01	-1.054688e-01
73.692770	1.600071	dec_social_accept_low	1.600071	16.000000	n/a	2	-1.054688e-01	-1.054688e-01
80.525986	1.833674	dec_nonsocial_choice	1.833674	32.000000	n/a	2	-1.679688e-01	-1.679688e-01
80.525986	1.833674	dec_choice	1.833674	32.000000	n/a	2	-1.679688e-01	-1.679688e-01
80.525986	1.833674	dec_nonsocial_accept	1.833674	32.000000	n/a	2	-1.832386e-01	-1.832386e-01
80.525986	1.833674	dec_accept	1.833674	32.000000	n/a	2	-1.832386e-01	-1.832386e-01
80.525986	1.833674	dec_nonsocial_low	1.833674	32.000000	n/a	2	-1.679688e-01	-1.679688e-01
80.525986	1.833674	dec_nonsocial_accept_low	1.833674	32.000000	n/a	2	-1.832386e-01	-1.832386e-01
87.360170	1.449423	dec_social_choice	1.449423	32.000000	n/a	16	2.695312e-01	2.695312e-01
87.360170	1.449423	dec_choice	1.449423	32.000000	n/a	16	2.695312e-01	2.695312e-01
87.360170	1.449423	dec_social_accept	1.449423	32.000000	n/a	16	2.542614e-01	2.542614e-01
87.360170	1.449423	dec_accept	1.449423	32.000000	n/a	16	2.542614e-01	2.542614e-01
87.360170	1.449423	dec_social_accept_high	1.449423	32.000000	n/a	16	2.695312e-01	2.695312e-01
95.009254	1.583183	dec_nonsocial_choice	1.583183	32.000000	n/a	8	1.953125e-02	1.953125e-02
95.009254	1.583183	dec_choice	1.583183	32.000000	n/a	8	1.953125e-02	1.953125e-02
95.009254	1.583183	dec_nonsocial_accept	1.583183	32.000000	n/a	8	4.261364e-03	4.261364e-03
95.009254	1.583183	dec_accept	1.583183	32.000000	n/a	8	4.261364e-03	4.261364e-03
95.009254	1.583183	dec_nonsocial_accept_high	1.583183	32.000000	n/a	8	4.261364e-03	4.261364e-03
101.842926	1.315926	dec_nonsocial_choice	1.315926	16.000000	n/a	4	1.953125e-02	1.953125e-02
101.842926	1.315926	dec_choice	1.315926	16.000000	n/a	4	1.953125e-02	1.953125e-02
101.842926	1.315926	dec_nonsocial_accept	1.315926	16.000000	n/a	4	4.261364e-03	4.261364e-03
101.842926	1.315926	dec_accept	1.315926	16.000000	n/a	4	4.261364e-03	4.261364e-03
101.842926	1.315926	dec_nonsocial_high	1.315926	16.000000	n/a	4	1.953125e-02	1.953125e-02
101.842926	1.315926	dec_nonsocial_accept_high	1.315926	16.000000	n/a	4	4.261364e-03	4.261364e-03
109.493195	1.299637	dec_social_choice	1.299637	32.000000	n/a	16	2.695312e-01	2.695312e-01
109.493195	1.299637	dec_choice	1.299637	32.000000	n/a	16	2.695312e-01	2.695312e-01
109.493195	1.299637	dec_social_accept	1.299637	32.000000	n/a	16	2.542614e-01	2.542614e-01
109.493195	1.299637	dec_accept	1.299637	32.000000	n/a	16	2.542614e-01	2.542614e-01
109.493195	1.299637	dec_social_accept_high	1.299637	32.000000	n/a	16	2.695312e-01	2.695312e-01
116.325860	1.916459	dec_nonsocial_choice	1.916459	32.000000	n/a	3	-1.367188e-01	-1.367188e-01
116.325860	1.916459	dec_choice	1.916459	32.000000	n/a	3	-1.367188e-01	-1.367188e-01
116.325860	1.916459	dec_nonsocial_accept	1.916459	32.000000	n/a	3	-1.519886e-01	-1.519886e-01
116.325860	1.916459	dec_accept	1.916459	32.000000	n/a	3	-1.519886e-01	-1.519886e-01
116.325860	1.916459	dec_nonsocial_accept_low	1.916459	32.000000	n/a	3	-1.519886e-01	-1.519886e-01
125.592650	1.300178	dec_nonsocial_choice	1.300178	16.000000	n/a	4	1.953125e-02	1.953125e-02
125.592650	1.300178	dec_choice	1.300178	16.000000	n/a	4	1.953125e-02	1.953125e-02
125.592650	1.300178	dec_nonsocial_accept	1.300178	16.000000	n/a	4	4.261364e-03	4.261364e-03
125.592650	1.300178	dec_accept	1.300178	16.000000	n/a	4	4.261364e-03	4.261364e-03
125.592650	1.300178	dec_nonsocial_accept_high	1.300178	16.000000	n/a	4	4.261364e-03	4.261364e-03
132.426640	1.215488	dec_social_choice	1.215488	16.000000	n/a	4	1.953125e-02	1.953125e-02
132.426640	1.215488	dec_choice	1.215488	16.000000	n/a	4	1.953125e-02	1.953125e-02
132.426640	1.215488	dec_social_accept	1.215488	16.000000	n/a	4	4.261364e-03	4.261364e-03
132.426640	1.215488	dec_accept	1.215488	16.000000	n/a	4	4.261364e-03	4.261364e-03
132.426640	1.215488	dec_social_high	1.215488	16.000000	n/a	4	1.953125e-02	1.953125e-02
132.426640	1.215488	dec_social_accept_high	1.215488	16.000000	n/a	4	1.953125e-02	1.953125e-02
139.260130	1.732035	dec_nonsocial_choice	1.732035	16.000000	n/a	0	0	-2.304688e-01
139.260130	1.732035	dec_choice	1.732035	16.000000	n/a	0	0	-2.304688e-01
139.260130	1.732035	dec_nonsocial_reject	1.732035	16.000000	n/a	0	0	0
139.260130	1.732035	dec_reject	1.732035	16.000000	n/a	0	0	0
139.260130	1.732035	dec_nonsocial_low	1.732035	16.000000	n/a	0	-2.304688e-01	-2.304688e-01
139.260130	1.732035	dec_nonsocial_reject_low	1.732035	16.000000	n/a	1	0	-6.250000e-02
148.525360	1.350613	dec_nonsocial_choice	1.350613	32.000000	n/a	3	-1.367188e-01	-1.367188e-01
148.525360	1.350613	dec_choice	1.350613	32.000000	n/a	3	-1.367188e-01	-1.367188e-01
148.525360	1.350613	dec_nonsocial_accept	1.350613	32.000000	n/a	3	-1.519886e-01	-1.519886e-01
148.525360	1.350613	dec_accept	1.350613	32.000000	n/a	3	-1.519886e-01	-1.519886e-01
148.525360	1.350613	dec_nonsocial_low	1.350613	32.000000	n/a	3	-1.367188e-01	-1.367188e-01
148.525360	1.350613	dec_nonsocial_accept_low	1.350613	32.000000	n/a	3	-1.519886e-01	-1.519886e-01
155.358870	1.950588	dec_social_choice	1.950588	16.000000	n/a	1	-1.679688e-01	-1.679688e-01
155.358870	1.950588	dec_choice	1.950588	16.000000	n/a	1	-1.679688e-01	-1.679688e-01
155.358870	1.950588	dec_social_accept	1.950588	16.000000	n/a	1	-1.832386e-01	-1.832386e-01
155.358870	1.950588	dec_accept	1.950588	16.000000	n/a	1	-1.832386e-01	-1.832386e-01
155.358870	1.950588	dec_social_accept_low	1.950588	16.000000	n/a	1	-1.679688e-01	-1.679688e-01
163.010240	1.515323	dec_nonsocial_choice	1.515323	16.000000	n/a	8	2.695312e-01	2.695312e-01
163.010240	1.515323	dec_choice	1.515323	16.000000	n/a	8	2.695312e-01	2.695312e-01
163.010240	1.515323	dec_nonsocial_accept	1.515323	16.000000	n/a	8	2.542614e-01	2.542614e-01
163.010240	1.515323	dec_accept	1.515323	16.000000	n/a	8	2.542614e-01	2.542614e-01
163.010240	1.515323	dec_nonsocial_accept_high	1.515323	16.000000	n/a	8	2.542614e-01	2.542614e-01
169.842600	1.199895	dec_nonsocial_choice	1.199895	16.000000	n/a	4	1.953125e-02	1.953125e-02
169.842600	1.199895	dec_choice	1.199895	16.000000	n/a	4	1.953125e-02	1.953125e-02
169.842600	1.199895	dec_nonsocial_accept	1.199895	16.000000	n/a	4	4.261364e-03	4.261364e-03
169.842600	1.199895	dec_accept	1.199895	16.000000	n/a	4	4.261364e-03	4.261364e-03
169.842600	1.199895	dec_nonsocial_accept_high	1.199895	16.000000	n/a	4	4.261364e-03	4.261364e-03
176.675310	1.534105	dec_social_choice	1.534105	16.000000	n/a	8	2.695312e-01	2.695312e-01
176.675310	1.534105	dec_choice	1.534105	16.000000	n/a	8	2.695312e-01	2.695312e-01
176.675310	1.534105	dec_social_accept	1.534105	16.000000	n/a	8	2.542614e-01	2.542614e-01
176.675310	1.534105	dec_accept	1.534105	16.000000	n/a	8	2.542614e-01	2.542614e-01
176.675310	1.534105	dec_social_high	1.534105	16.000000	n/a	8	2.695312e-01	2.695312e-01
176.675310	1.534105	dec_social_accept_high	1.534105	16.000000	n/a	8	2.695312e-01	2.695312e-01
187.542530	1.466661	dec_nonsocial_choice	1.466661	32.000000	n/a	16	2.695312e-01	2.695312e-01
187.542530	1.466661	dec_choice	1.466661	32.000000	n/a	16	2.695312e-01	2.695312e-01
187.542530	1.466661	dec_nonsocial_accept	1.466661	32.000000	n/a	16	2.542614e-01	2.542614e-01
187.542530	1.466661	dec_accept	1.466661	32.000000	n/a	16	2.542614e-01	2.542614e-01
187.542530	1.466661	dec_nonsocial_accept_high	1.466661	32.000000	n/a	16	2.542614e-01	2.542614e-01
194.376200	1.633358	dec_nonsocial_choice	1.633358	16.000000	n/a	8	2.695312e-01	2.695312e-01
194.376200	1.633358	dec_choice	1.633358	16.000000	n/a	8	2.695312e-01	2.695312e-01
194.376200	1.633358	dec_nonsocial_accept	1.633358	16.000000	n/a	8	2.542614e-01	2.542614e-01
194.376200	1.633358	dec_accept	1.633358	16.000000	n/a	8	2.542614e-01	2.542614e-01
194.376200	1.633358	dec_nonsocial_accept_high	1.633358	16.000000	n/a	8	2.542614e-01	2.542614e-01
206.859180	1.550067	dec_nonsocial_choice	1.550067	16.000000	n/a	2	-1.054688e-01	-1.054688e-01
206.859180	1.550067	dec_choice	1.550067	16.000000	n/a	2	-1.054688e-01	-1.054688e-01
206.859180	1.550067	dec_nonsocial_accept	1.550067	16.000000	n/a	2	-1.207386e-01	-1.207386e-01
206.859180	1.550067	dec_accept	1.550067	16.000000	n/a	2	-1.207386e-01	-1.207386e-01
206.859180	1.550067	dec_nonsocial_accept_low	1.550067	16.000000	n/a	2	-1.207386e-01	-1.207386e-01
214.492680	2.015953	dec_nonsocial_choice	2.015953	16.000000	n/a	1	-1.679688e-01	-1.679688e-01
214.492680	2.015953	dec_choice	2.015953	16.000000	n/a	1	-1.679688e-01	-1.679688e-01
214.492680	2.015953	dec_nonsocial_accept	2.015953	16.000000	n/a	1	-1.832386e-01	-1.832386e-01
214.492680	2.015953	dec_accept	2.015953	16.000000	n/a	1	-1.832386e-01	-1.832386e-01
214.492680	2.015953	dec_nonsocial_accept_low	2.015953	16.000000	n/a	1	-1.832386e-01	-1.832386e-01
225.375610	1.200177	dec_nonsocial_choice	1.200177	16.000000	n/a	8	2.695312e-01	2.695312e-01
225.375610	1.200177	dec_choice	1.200177	16.000000	n/a	8	2.695312e-01	2.695312e-01
225.375610	1.200177	dec_nonsocial_accept	1.200177	16.000000	n/a	8	2.542614e-01	2.542614e-01
225.375610	1.200177	dec_accept	1.200177	16.000000	n/a	8	2.542614e-01	2.542614e-01
225.375610	1.200177	dec_nonsocial_accept_high	1.200177	16.000000	n/a	8	2.542614e-01	2.542614e-01
233.026400	1.232069	dec_social_choice	1.232069	32.000000	n/a	3	-1.367188e-01	-1.367188e-01
233.026400	1.232069	dec_choice	1.232069	32.000000	n/a	3	-1.367188e-01	-1.367188e-01
233.026400	1.232069	dec_social_accept	1.232069	32.000000	n/a	3	-1.519886e-01	-1.519886e-01
233.026400	1.232069	dec_accept	1.232069	32.000000	n/a	3	-1.519886e-01	-1.519886e-01
233.026400	1.232069	dec_social_accept_low	1.232069	32.000000	n/a	3	-1.367188e-01	-1.367188e-01
240.676060	1.583167	dec_social_choice	1.583167	32.000000	n/a	0	0	-2.304688e-01
240.676060	1.583167	dec_choice	1.583167	32.000000	n/a	0	0	-2.304688e-01
240.676060	1.583167	dec_social_reject	1.583167	32.000000	n/a	0	0	0
240.676060	1.583167	dec_reject	1.583167	32.000000	n/a	0	0	0
240.676060	1.583167	dec_social_reject_low	1.583167	32.000000	n/a	2	-1.679688e-01	-2.304688e-01
249.942460	2.116302	dec_nonsocial_choice	2.116302	16.000000	n/a	1	-1.679688e-01	-1.679688e-01
249.942460	2.116302	dec_choice	2.116302	16.000000	n/a	1	-1.679688e-01	-1.679688e-01
249.942460	2.116302	dec_nonsocial_accept	2.116302	16.000000	n/a	1	-1.832386e-01	-1.832386e-01
249.942460	2.116302	dec_accept	2.116302	16.000000	n/a	1	-1.832386e-01	-1.832386e-01
249.942460	2.116302	dec_nonsocial_accept_low	2.116302	16.000000	n/a	1	-1.832386e-01	-1.832386e-01
256.776030	0.899554	dec_social_choice	0.899554	32.000000	n/a	8	1.953125e-02	1.953125e-02
256.776030	0.899554	dec_choice	0.899554	32.000000	n/a	8	1.953125e-02	1.953125e-02
256.776030	0.899554	dec_social_accept	0.899554	32.000000	n/a	8	4.261364e-03	4.261364e-03
256.776030	0.899554	dec_accept	0.899554	32.000000	n/a	8	4.261364e-03	4.261364e-03
256.776030	0.899554	dec_social_accept_high	0.899554	32.000000	n/a	8	1.953125e-02	1.953125e-02
264.425700	1.516358	dec_nonsocial_choice	1.516358	32.000000	n/a	8	1.953125e-02	1.953125e-02
264.425700	1.516358	dec_choice	1.516358	32.000000	n/a	8	1.953125e-02	1.953125e-02
264.425700	1.516358	dec_nonsocial_accept	1.516358	32.000000	n/a	8	4.261364e-03	4.261364e-03
264.425700	1.516358	dec_accept	1.516358	32.000000	n/a	8	4.261364e-03	4.261364e-03
264.425700	1.516358	dec_nonsocial_high	1.516358	32.000000	n/a	8	1.953125e-02	1.953125e-02
264.425700	1.516358	dec_nonsocial_accept_high	1.516358	32.000000	n/a	8	4.261364e-03	4.261364e-03
271.259100	1.533387	dec_social_choice	1.533387	16.000000	n/a	8	2.695312e-01	2.695312e-01
271.259100	1.533387	dec_choice	1.533387	16.000000	n/a	8	2.695312e-01	2.695312e-01
271.259100	1.533387	dec_social_accept	1.533387	16.000000	n/a	8	2.542614e-01	2.542614e-01
271.259100	1.533387	dec_accept	1.533387	16.000000	n/a	8	2.542614e-01	2.542614e-01
271.259100	1.533387	dec_social_accept_high	1.533387	16.000000	n/a	8	2.695312e-01	2.695312e-01
278.908800	1.500641	dec_nonsocial_choice	1.500641	32.000000	n/a	16	2.695312e-01	2.695312e-01
278.908800	1.500641	dec_choice	1.500641	32.000000	n/a	16	2.695312e-01	2.695312e-01
278.908800	1.500641	dec_nonsocial_accept	1.500641	32.000000	n/a	16	2.542614e-01	2.542614e-01
278.908800	1.500641	dec_accept	1.500641	32.000000	n/a	16	2.542614e-01	2.542614e-01
278.908800	1.500641	dec_nonsocial_high	1.500641	32.000000	n/a	16	2.695312e-01	2.695312e-01
278.908800	1.500641	dec_nonsocial_accept_high	1.500641	32.000000	n/a	16	2.542614e-01	2.542614e-01
285.742200	1.466062	dec_social_choice	1.466062	32.000000	n/a	3	-1.367188e-01	-1.367188e-01
285.742200	1.466062	dec_choice	1.466062	32.000000	n/a	3	-1.367188e-01	-1.367188e-01
285.742200	1.466062	dec_social_accept	1.466062	32.000000	n/a	3	-1.519886e-01	-1.519886e-01
285.742200	1.466062	dec_accept	1.466062	32.000000	n/a	3	-1.519886e-01	-1.519886e-01
285.742200	1.466062	dec_social_accept_low	1.466062	32.000000	n/a	3	-1.367188e-01	-1.367188e-01
292.575620	1.516184	dec_nonsocial_choice	1.516184	16.000000	n/a	2	-1.054688e-01	-1.054688e-01
292.575620	1.516184	dec_choice	1.516184	16.000000	n/a	2	-1.054688e-01	-1.054688e-01
292.575620	1.516184	dec_nonsocial_accept	1.516184	16.000000	n/a	2	-1.207386e-01	-1.207386e-01
292.575620	1.516184	dec_accept	1.516184	16.000000	n/a	2	-1.207386e-01	-1.207386e-01
292.575620	1.516184	dec_nonsocial_low	1.516184	16.000000	n/a	2	-1.054688e-01	-1.054688e-01
292.575620	1.516184	dec_nonsocial_accept_low	1.516184	16.000000	n/a	2	-1.207386e-01	-1.207386e-01
301.843080	1.415134	dec_nonsocial_choice	1.415134	16.000000	n/a	2	-1.054688e-01	-1.054688e-01
301.843080	1.415134	dec_choice	1.415134	16.000000	n/a	2	-1.054688e-01	-1.054688e-01
301.843080	1.415134	dec_nonsocial_accept	1.415134	16.000000	n/a	2	-1.207386e-01	-1.207386e-01
301.843080	1.415134	dec_accept	1.415134	16.000000	n/a	2	-1.207386e-01	-1.207386e-01
301.843080	1.415134	dec_nonsocial_accept_low	1.415134	16.000000	n/a	2	-1.207386e-01	-1.207386e-01
312.709000	1.366761	dec_social_choice	1.366761	32.000000	n/a	2	-1.679688e-01	-1.679688e-01
312.709000	1.366761	dec_choice	1.366761	32.000000	n/a	2	-1.679688e-01	-1.679688e-01
312.709000	1.366761	dec_social_accept	1.366761	32.000000	n/a	2	-1.832386e-01	-1.832386e-01
312.709000	1.366761	dec_accept	1.366761	32.000000	n/a	2	-1.832386e-01	-1.832386e-01
312.709000	1.366761	dec_social_accept_low	1.366761	32.000000	n/a	2	-1.679688e-01	-1.679688e-01
319.542240	2.249844	dec_nonsocial_choice	2.249844	32.000000	n/a	2	-1.679688e-01	-1.679688e-01
319.542240	2.249844	dec_choice	2.249844	32.000000	n/a	2	-1.679688e-01	-1.679688e-01
319.542240	2.249844	dec_nonsocial_accept	2.249844	32.000000	n/a	2	-1.832386e-01	-1.832386e-01
319.542240	2.249844	dec_accept	2.249844	32.000000	n/a	2	-1.832386e-01	-1.832386e-01
319.542240	2.249844	dec_nonsocial_low	2.249844	32.000000	n/a	2	-1.679688e-01	-1.679688e-01
319.542240	2.249844	dec_nonsocial_accept_low	2.249844	32.000000	n/a	2	-1.832386e-01	-1.832386e-01
327.192840	1.565441	dec_social_choice	1.565441	16.000000	n/a	0	0	-2.304688e-01
327.192840	1.565441	dec_choice	1.565441	16.000000	n/a	0	0	-2.304688e-01
327.192840	1.565441	dec_social_reject	1.565441	16.000000	n/a	0	0	0
327.192840	1.565441	dec_reject	1.565441	16.000000	n/a	0	0	0
327.192840	1.565441	dec_social_reject_low	1.565441	16.000000	n/a	1	-1.679688e-01	-2.304688e-01
336.458250	1.300631	dec_social_choice	1.300631	32.000000	n/a	16	2.695312e-01	2.695312e-01
336.458250	1.300631	dec_choice	1.300631	32.000000	n/a	16	2.695312e-01	2.695312e-01
336.458250	1.300631	dec_social_accept	1.300631	32.000000	n/a	16	2.542614e-01	2.542614e-01
336.458250	1.300631	dec_accept	1.300631	32.000000	n/a	16	2.542614e-01	2.542614e-01
336.458250	1.300631	dec_social_high	1.300631	32.000000	n/a	16	2.695312e-01	2.695312e-01
336.458250	1.300631	dec_social_accept_high	1.300631	32.000000	n/a	16	2.695312e-01	2.695312e-01
343.291100	1.601263	dec_nonsocial_choice	1.601263	16.000000	n/a	8	2.695312e-01	2.695312e-01
343.291100	1.601263	dec_choice	1.601263	16.000000	n/a	8	2.695312e-01	2.695312e-01
343.291100	1.601263	dec_nonsocial_accept	1.601263	16.000000	n/a	8	2.542614e-01	2.542614e-01
343.291100	1.601263	dec_accept	1.601263	16.000000	n/a	8	2.542614e-01	2.542614e-01
343.291100	1.601263	dec_nonsocial_accept_high	1.601263	16.000000	n/a	8	2.542614e-01	2.542614e-01
350.124850	2.066762	dec_nonsocial_choice	2.066762	32.000000	n/a	3	-1.367188e-01	-1.367188e-01
350.124850	2.066762	dec_choice	2.066762	32.000000	n/a	3	-1.367188e-01	-1.367188e-01
350.124850	2.066762	dec_nonsocial_accept	2.066762	32.000000	n/a	3	-1.519886e-01	-1.519886e-01
350.124850	2.066762	dec_accept	2.066762	32.000000	n/a	3	-1.519886e-01	-1.519886e-01
350.124850	2.066762	dec_nonsocial_low	2.066762	32.000000	n/a	3	-1.367188e-01	-1.367188e-01
350.124850	2.066762	dec_nonsocial_accept_low	2.066762	32.000000	n/a	3	-1.519886e-01	-1.519886e-01
356.959140	1.215703	dec_social_choice	1.215703	16.000000	n/a	2	-1.054688e-01	-1.054688e-01
356.959140	1.215703	dec_choice	1.215703	16.000000	n/a	2	-1.054688e-01	-1.054688e-01
356.959140	1.215703	dec_social_accept	1.215703	16.000000	n/a	2	-1.207386e-01	-1.207386e-01
356.959140	1.215703	dec_accept	1.215703	16.000000	n/a	2	-1.207386e-01	-1.207386e-01
356.959140	1.215703	dec_social_accept_low	1.215703	16.000000	n/a	2	-1.054688e-01	-1.054688e-01
366.225860	1.299364	dec_social_choice	1.299364	16.000000	n/a	4	1.953125e-02	1.953125e-02
366.225860	1.299364	dec_choice	1.299364	16.000000	n/a	4	1.953125e-02	1.953125e-02
366.225860	1.299364	dec_social_accept	1.299364	16.000000	n/a	4	4.261364e-03	4.261364e-03
366.225860	1.299364	dec_accept	1.299364	16.000000	n/a	4	4.261364e-03	4.261364e-03
366.225860	1.299364	dec_social_high	1.299364	16.000000	n/a	4	1.953125e-02	1.953125e-02
366.225860	1.299364	dec_social_accept_high	1.299364	16.000000	n/a	4	1.953125e-02	1.953125e-02
373.058300	1.900841	dec_social_choice	1.900841	32.000000	n/a	2	-1.679688e-01	-1.679688e-01
373.058300	1.900841	dec_choice	1.900841	32.000000	n/a	2	-1.679688e-01	-1.679688e-01
373.058300	1.900841	dec_social_accept	1.900841	32.000000	n/a	2	-1.832386e-01	-1.832386e-01
373.058300	1.900841	dec_accept	1.900841	32.000000	n/a	2	-1.832386e-01	-1.832386e-01
373.058300	1.900841	dec_social_low	1.900841	32.000000	n/a	2	-1.679688e-01	-1.679688e-01
373.058300	1.900841	dec_social_accept_low	1.900841	32.000000	n/a	2	-1.679688e-01	-1.679688e-01
