onset	duration	trial_type	response_time	Endowment	Endowment_pmod	Decision	Decision_pmod	Offer_pmod
4.511227	2	cue_nonsocial	n/a	32	7	n/a	n/a	n/a
4.511227	2	cue_nonsocial_high	n/a	32	7	n/a	n/a	n/a
11.344665	2	cue_nonsocial	n/a	16	-9	n/a	n/a	n/a
11.344665	2	cue_nonsocial_low	n/a	16	-9	n/a	n/a	n/a
18.294897	2	cue_social	n/a	32	7	n/a	n/a	n/a
18.294897	2	cue_social_high	n/a	32	7	n/a	n/a	n/a
25.011074	2	cue_nonsocial	n/a	16	-9	n/a	n/a	n/a
25.011074	2	cue_nonsocial_low	n/a	16	-9	n/a	n/a	n/a
31.844439	2	cue_nonsocial	n/a	32	7	n/a	n/a	n/a
31.844439	2	cue_nonsocial_high	n/a	32	7	n/a	n/a	n/a
38.784702	2	cue_social	n/a	16	-9	n/a	n/a	n/a
38.784702	2	cue_social_low	n/a	16	-9	n/a	n/a	n/a
48.029290	2	cue_social	n/a	16	-9	n/a	n/a	n/a
48.029290	2	cue_social_low	n/a	16	-9	n/a	n/a	n/a
57.178665	2	cue_nonsocial	n/a	32	7	n/a	n/a	n/a
57.178665	2	cue_nonsocial_high	n/a	32	7	n/a	n/a	n/a
64.138570	2	cue_social	n/a	32	7	n/a	n/a	n/a
64.138570	2	cue_social_high	n/a	32	7	n/a	n/a	n/a
70.845020	2	cue_social	n/a	16	-9	n/a	n/a	n/a
70.845020	2	cue_social_low	n/a	16	-9	n/a	n/a	n/a
77.677900	2	cue_nonsocial	n/a	16	-9	n/a	n/a	n/a
77.677900	2	cue_nonsocial_low	n/a	16	-9	n/a	n/a	n/a
84.511140	2	cue_nonsocial	n/a	32	7	n/a	n/a	n/a
84.511140	2	cue_nonsocial_high	n/a	32	7	n/a	n/a	n/a
91.468350	2	cue_social	n/a	32	7	n/a	n/a	n/a
91.468350	2	cue_social_high	n/a	32	7	n/a	n/a	n/a
99.105470	2	cue_social	n/a	16	-9	n/a	n/a	n/a
99.105470	2	cue_social_low	n/a	16	-9	n/a	n/a	n/a
106.653620	2	cue_social	n/a	32	7	n/a	n/a	n/a
106.653620	2	cue_social_high	n/a	32	7	n/a	n/a	n/a
114.296555	2	cue_social	n/a	16	-9	n/a	n/a	n/a
114.296555	2	cue_social_low	n/a	16	-9	n/a	n/a	n/a
123.560760	2	cue_nonsocial	n/a	16	-9	n/a	n/a	n/a
123.560760	2	cue_nonsocial_low	n/a	16	-9	n/a	n/a	n/a
130.486770	2	cue_social	n/a	16	-9	n/a	n/a	n/a
130.486770	2	cue_social_low	n/a	16	-9	n/a	n/a	n/a
137.315890	2	cue_social	n/a	16	-9	n/a	n/a	n/a
137.315890	2	cue_social_low	n/a	16	-9	n/a	n/a	n/a
144.877580	2	cue_nonsocial	n/a	16	-9	n/a	n/a	n/a
144.877580	2	cue_nonsocial_low	n/a	16	-9	n/a	n/a	n/a
152.635420	2	cue_social	n/a	32	7	n/a	n/a	n/a
152.635420	2	cue_social_high	n/a	32	7	n/a	n/a	n/a
159.466660	2	cue_social	n/a	16	-9	n/a	n/a	n/a
159.466660	2	cue_social_low	n/a	16	-9	n/a	n/a	n/a
168.663510	2	cue_social	n/a	32	7	n/a	n/a	n/a
168.663510	2	cue_social_high	n/a	32	7	n/a	n/a	n/a
175.461010	2	cue_nonsocial	n/a	32	7	n/a	n/a	n/a
175.461010	2	cue_nonsocial_high	n/a	32	7	n/a	n/a	n/a
186.459660	2	cue_social	n/a	32	7	n/a	n/a	n/a
186.459660	2	cue_social_high	n/a	32	7	n/a	n/a	n/a
194.054610	2	cue_social	n/a	16	-9	n/a	n/a	n/a
194.054610	2	cue_social_low	n/a	16	-9	n/a	n/a	n/a
201.627520	2	cue_nonsocial	n/a	32	7	n/a	n/a	n/a
201.627520	2	cue_nonsocial_high	n/a	32	7	n/a	n/a	n/a
210.893970	2	cue_nonsocial	n/a	16	-9	n/a	n/a	n/a
210.893970	2	cue_nonsocial_low	n/a	16	-9	n/a	n/a	n/a
218.543760	2	cue_nonsocial	n/a	16	-9	n/a	n/a	n/a
218.543760	2	cue_nonsocial_low	n/a	16	-9	n/a	n/a	n/a
226.249970	2	cue_social	n/a	16	-9	n/a	n/a	n/a
226.249970	2	cue_social_low	n/a	16	-9	n/a	n/a	n/a
233.105420	2	cue_social	n/a	16	-9	n/a	n/a	n/a
233.105420	2	cue_social_low	n/a	16	-9	n/a	n/a	n/a
240.678990	2	cue_nonsocial	n/a	16	-9	n/a	n/a	n/a
240.678990	2	cue_nonsocial_low	n/a	16	-9	n/a	n/a	n/a
250.027050	2	cue_social	n/a	32	7	n/a	n/a	n/a
250.027050	2	cue_social_high	n/a	32	7	n/a	n/a	n/a
260.842070	2	cue_social	n/a	32	7	n/a	n/a	n/a
260.842070	2	cue_social_high	n/a	32	7	n/a	n/a	n/a
271.759830	2	cue_social	n/a	32	7	n/a	n/a	n/a
271.759830	2	cue_social_high	n/a	32	7	n/a	n/a	n/a
278.589000	2	cue_social	n/a	32	7	n/a	n/a	n/a
278.589000	2	cue_social_high	n/a	32	7	n/a	n/a	n/a
285.329500	2	cue_nonsocial	n/a	32	7	n/a	n/a	n/a
285.329500	2	cue_nonsocial_high	n/a	32	7	n/a	n/a	n/a
297.810880	2	cue_nonsocial	n/a	32	7	n/a	n/a	n/a
297.810880	2	cue_nonsocial_high	n/a	32	7	n/a	n/a	n/a
304.710080	2	cue_social	n/a	32	7	n/a	n/a	n/a
304.710080	2	cue_social_high	n/a	32	7	n/a	n/a	n/a
312.378450	2	cue_social	n/a	32	7	n/a	n/a	n/a
312.378450	2	cue_social_high	n/a	32	7	n/a	n/a	n/a
319.143800	2	cue_nonsocial	n/a	32	7	n/a	n/a	n/a
319.143800	2	cue_nonsocial_high	n/a	32	7	n/a	n/a	n/a
325.994700	2	cue_nonsocial	n/a	16	-9	n/a	n/a	n/a
325.994700	2	cue_nonsocial_low	n/a	16	-9	n/a	n/a	n/a
333.643950	2	cue_nonsocial	n/a	16	-9	n/a	n/a	n/a
333.643950	2	cue_nonsocial_low	n/a	16	-9	n/a	n/a	n/a
340.477000	2	cue_nonsocial	n/a	32	7	n/a	n/a	n/a
340.477000	2	cue_nonsocial_high	n/a	32	7	n/a	n/a	n/a
347.311370	2	cue_nonsocial	n/a	32	7	n/a	n/a	n/a
347.311370	2	cue_nonsocial_high	n/a	32	7	n/a	n/a	n/a
354.960400	2	cue_nonsocial	n/a	16	-9	n/a	n/a	n/a
354.960400	2	cue_nonsocial_low	n/a	16	-9	n/a	n/a	n/a
361.794500	2	cue_nonsocial	n/a	32	7	n/a	n/a	n/a
361.794500	2	cue_nonsocial_high	n/a	32	7	n/a	n/a	n/a
368.626950	2	cue_nonsocial	n/a	32	7	n/a	n/a	n/a
368.626950	2	cue_nonsocial_high	n/a	32	7	n/a	n/a	n/a
6.517160	2.565826	dec_nonsocial_choice	2.565826	32.000000	n/a	8	3.057065e-02	3.057065e-02
6.517160	2.565826	dec_choice	2.565826	32.000000	n/a	8	2.989130e-02	2.989130e-02
6.517160	2.565826	dec_nonsocial_accept	2.565826	32.000000	n/a	8	-1.136364e-01	-1.136364e-01
6.517160	2.565826	dec_accept	2.565826	32.000000	n/a	8	-1.136364e-01	-1.136364e-01
6.517160	2.565826	dec_nonsocial_accept_high	2.565826	32.000000	n/a	8	-1.136364e-01	-1.136364e-01
13.350006	1.816152	dec_nonsocial_choice	1.816152	16.000000	n/a	0	0	-2.194293e-01
13.350006	1.816152	dec_choice	1.816152	16.000000	n/a	0	0	-2.201087e-01
13.350006	1.816152	dec_nonsocial_reject	1.816152	16.000000	n/a	0	0	-2.473958e-02
13.350006	1.816152	dec_reject	1.816152	16.000000	n/a	0	0	-2.604167e-02
13.350006	1.816152	dec_nonsocial_low	1.816152	16.000000	n/a	0	-2.201087e-01	-2.201087e-01
13.350006	1.816152	dec_nonsocial_reject_low	1.816152	16.000000	n/a	1	-2.604167e-02	-8.854167e-02
20.183512	1.083589	dec_social_choice	1.083589	32.000000	n/a	8	3.057065e-02	3.057065e-02
20.183512	1.083589	dec_choice	1.083589	32.000000	n/a	8	3.125000e-02	3.125000e-02
20.183512	1.083589	dec_social_accept	1.083589	32.000000	n/a	8	-1.136364e-01	-1.136364e-01
20.183512	1.083589	dec_accept	1.083589	32.000000	n/a	8	-1.136364e-01	-1.136364e-01
20.183512	1.083589	dec_social_accept_high	1.083589	32.000000	n/a	8	3.125000e-02	3.125000e-02
27.017010	1.216087	dec_nonsocial_choice	1.216087	16.000000	n/a	0	0	-2.194293e-01
27.017010	1.216087	dec_choice	1.216087	16.000000	n/a	0	0	-2.201087e-01
27.017010	1.216087	dec_nonsocial_reject	1.216087	16.000000	n/a	0	0	3.776042e-02
27.017010	1.216087	dec_reject	1.216087	16.000000	n/a	0	0	3.645833e-02
27.017010	1.216087	dec_nonsocial_low	1.216087	16.000000	n/a	0	-2.201087e-01	-2.201087e-01
27.017010	1.216087	dec_nonsocial_reject_low	1.216087	16.000000	n/a	2	3.645833e-02	-8.854167e-02
33.850346	1.133171	dec_nonsocial_choice	1.133171	32.000000	n/a	16	2.805707e-01	2.805707e-01
33.850346	1.133171	dec_choice	1.133171	32.000000	n/a	16	2.798913e-01	2.798913e-01
33.850346	1.133171	dec_nonsocial_accept	1.133171	32.000000	n/a	16	1.363636e-01	1.363636e-01
33.850346	1.133171	dec_accept	1.133171	32.000000	n/a	16	1.363636e-01	1.363636e-01
33.850346	1.133171	dec_nonsocial_high	1.133171	32.000000	n/a	16	2.798913e-01	2.798913e-01
33.850346	1.133171	dec_nonsocial_accept_high	1.133171	32.000000	n/a	16	1.363636e-01	1.363636e-01
40.684060	1.116311	dec_social_choice	1.116311	16.000000	n/a	0	0	-2.194293e-01
40.684060	1.116311	dec_choice	1.116311	16.000000	n/a	0	0	-2.187500e-01
40.684060	1.116311	dec_social_reject	1.116311	16.000000	n/a	0	0	3.776042e-02
40.684060	1.116311	dec_reject	1.116311	16.000000	n/a	0	0	3.906250e-02
40.684060	1.116311	dec_social_reject_low	1.116311	16.000000	n/a	2	-9.375000e-02	-2.187500e-01
49.933117	1.017062	dec_social_choice	1.017062	16.000000	n/a	0	0	-2.194293e-01
49.933117	1.017062	dec_choice	1.017062	16.000000	n/a	0	0	-2.187500e-01
49.933117	1.017062	dec_social_reject	1.017062	16.000000	n/a	0	0	-2.473958e-02
49.933117	1.017062	dec_reject	1.017062	16.000000	n/a	0	0	-2.343750e-02
49.933117	1.017062	dec_social_reject_low	1.017062	16.000000	n/a	1	-1.562500e-01	-2.187500e-01
59.183790	0.983176	dec_nonsocial_choice	0.983176	32.000000	n/a	16	2.805707e-01	2.805707e-01
59.183790	0.983176	dec_choice	0.983176	32.000000	n/a	16	2.798913e-01	2.798913e-01
59.183790	0.983176	dec_nonsocial_accept	0.983176	32.000000	n/a	16	1.363636e-01	1.363636e-01
59.183790	0.983176	dec_accept	0.983176	32.000000	n/a	16	1.363636e-01	1.363636e-01
59.183790	0.983176	dec_nonsocial_accept_high	0.983176	32.000000	n/a	16	1.363636e-01	1.363636e-01
66.016310	1.284854	dec_social_choice	1.284854	32.000000	n/a	0	0	-2.194293e-01
66.016310	1.284854	dec_choice	1.284854	32.000000	n/a	0	0	-2.187500e-01
66.016310	1.284854	dec_social_reject	1.284854	32.000000	n/a	0	0	6.510417e-03
66.016310	1.284854	dec_reject	1.284854	32.000000	n/a	0	0	7.812500e-03
66.016310	1.284854	dec_social_reject_low	1.284854	32.000000	n/a	3	-1.250000e-01	-2.187500e-01
72.849680	0.883529	dec_social_choice	0.883529	16.000000	n/a	8	2.805707e-01	2.805707e-01
72.849680	0.883529	dec_choice	0.883529	16.000000	n/a	8	2.812500e-01	2.812500e-01
72.849680	0.883529	dec_social_accept	0.883529	16.000000	n/a	8	1.363636e-01	1.363636e-01
72.849680	0.883529	dec_accept	0.883529	16.000000	n/a	8	1.363636e-01	1.363636e-01
72.849680	0.883529	dec_social_accept_high	0.883529	16.000000	n/a	8	2.812500e-01	2.812500e-01
79.683630	1.082621	dec_nonsocial_choice	1.082621	16.000000	n/a	4	3.057065e-02	3.057065e-02
79.683630	1.082621	dec_choice	1.082621	16.000000	n/a	4	2.989130e-02	2.989130e-02
79.683630	1.082621	dec_nonsocial_accept	1.082621	16.000000	n/a	4	-1.136364e-01	-1.136364e-01
79.683630	1.082621	dec_accept	1.082621	16.000000	n/a	4	-1.136364e-01	-1.136364e-01
79.683630	1.082621	dec_nonsocial_high	1.082621	16.000000	n/a	4	2.989130e-02	2.989130e-02
79.683630	1.082621	dec_nonsocial_accept_high	1.082621	16.000000	n/a	4	-1.136364e-01	-1.136364e-01
86.516360	0.884216	dec_nonsocial_choice	0.884216	32.000000	n/a	16	2.805707e-01	2.805707e-01
86.516360	0.884216	dec_choice	0.884216	32.000000	n/a	16	2.798913e-01	2.798913e-01
86.516360	0.884216	dec_nonsocial_accept	0.884216	32.000000	n/a	16	1.363636e-01	1.363636e-01
86.516360	0.884216	dec_accept	0.884216	32.000000	n/a	16	1.363636e-01	1.363636e-01
86.516360	0.884216	dec_nonsocial_accept_high	0.884216	32.000000	n/a	16	1.363636e-01	1.363636e-01
93.349266	0.883424	dec_social_choice	0.883424	32.000000	n/a	16	2.805707e-01	2.805707e-01
93.349266	0.883424	dec_choice	0.883424	32.000000	n/a	16	2.812500e-01	2.812500e-01
93.349266	0.883424	dec_social_accept	0.883424	32.000000	n/a	16	1.363636e-01	1.363636e-01
93.349266	0.883424	dec_accept	0.883424	32.000000	n/a	16	1.363636e-01	1.363636e-01
93.349266	0.883424	dec_social_accept_high	0.883424	32.000000	n/a	16	2.812500e-01	2.812500e-01
101.001080	0.899188	dec_social_choice	0.899188	16.000000	n/a	0	0	-2.194293e-01
101.001080	0.899188	dec_choice	0.899188	16.000000	n/a	0	0	-2.187500e-01
101.001080	0.899188	dec_social_reject	0.899188	16.000000	n/a	0	0	3.776042e-02
101.001080	0.899188	dec_reject	0.899188	16.000000	n/a	0	0	3.906250e-02
101.001080	0.899188	dec_social_reject_low	0.899188	16.000000	n/a	2	-9.375000e-02	-2.187500e-01
108.650960	1.199330	dec_social_choice	1.199330	32.000000	n/a	8	3.057065e-02	3.057065e-02
108.650960	1.199330	dec_choice	1.199330	32.000000	n/a	8	3.125000e-02	3.125000e-02
108.650960	1.199330	dec_social_accept	1.199330	32.000000	n/a	8	-1.136364e-01	-1.136364e-01
108.650960	1.199330	dec_accept	1.199330	32.000000	n/a	8	-1.136364e-01	-1.136364e-01
108.650960	1.199330	dec_social_high	1.199330	32.000000	n/a	8	3.125000e-02	3.125000e-02
108.650960	1.199330	dec_social_accept_high	1.199330	32.000000	n/a	8	3.125000e-02	3.125000e-02
116.300095	1.099684	dec_social_choice	1.099684	16.000000	n/a	4	3.057065e-02	3.057065e-02
116.300095	1.099684	dec_choice	1.099684	16.000000	n/a	4	3.125000e-02	3.125000e-02
116.300095	1.099684	dec_social_accept	1.099684	16.000000	n/a	4	-1.136364e-01	-1.136364e-01
116.300095	1.099684	dec_accept	1.099684	16.000000	n/a	4	-1.136364e-01	-1.136364e-01
116.300095	1.099684	dec_social_accept_high	1.099684	16.000000	n/a	4	3.125000e-02	3.125000e-02
125.567090	0.949488	dec_nonsocial_choice	0.949488	16.000000	n/a	4	3.057065e-02	3.057065e-02
125.567090	0.949488	dec_choice	0.949488	16.000000	n/a	4	2.989130e-02	2.989130e-02
125.567090	0.949488	dec_nonsocial_accept	0.949488	16.000000	n/a	4	-1.136364e-01	-1.136364e-01
125.567090	0.949488	dec_accept	0.949488	16.000000	n/a	4	-1.136364e-01	-1.136364e-01
125.567090	0.949488	dec_nonsocial_high	0.949488	16.000000	n/a	4	2.989130e-02	2.989130e-02
125.567090	0.949488	dec_nonsocial_accept_high	0.949488	16.000000	n/a	4	-1.136364e-01	-1.136364e-01
132.400280	1.116418	dec_social_choice	1.116418	16.000000	n/a	0	0	-2.194293e-01
132.400280	1.116418	dec_choice	1.116418	16.000000	n/a	0	0	-2.187500e-01
132.400280	1.116418	dec_social_reject	1.116418	16.000000	n/a	0	0	-2.473958e-02
132.400280	1.116418	dec_reject	1.116418	16.000000	n/a	0	0	-2.343750e-02
132.400280	1.116418	dec_social_low	1.116418	16.000000	n/a	0	-2.187500e-01	-2.187500e-01
132.400280	1.116418	dec_social_reject_low	1.116418	16.000000	n/a	1	-1.562500e-01	-2.187500e-01
139.234130	1.032471	dec_social_choice	1.032471	16.000000	n/a	4	3.057065e-02	3.057065e-02
139.234130	1.032471	dec_choice	1.032471	16.000000	n/a	4	3.125000e-02	3.125000e-02
139.234130	1.032471	dec_social_accept	1.032471	16.000000	n/a	4	-1.136364e-01	-1.136364e-01
139.234130	1.032471	dec_accept	1.032471	16.000000	n/a	4	-1.136364e-01	-1.136364e-01
139.234130	1.032471	dec_social_accept_high	1.032471	16.000000	n/a	4	3.125000e-02	3.125000e-02
146.884120	1.115043	dec_nonsocial_choice	1.115043	16.000000	n/a	0	0	-2.194293e-01
146.884120	1.115043	dec_choice	1.115043	16.000000	n/a	0	0	-2.201087e-01
146.884120	1.115043	dec_nonsocial_reject	1.115043	16.000000	n/a	0	0	3.776042e-02
146.884120	1.115043	dec_reject	1.115043	16.000000	n/a	0	0	3.645833e-02
146.884120	1.115043	dec_nonsocial_reject_low	1.115043	16.000000	n/a	2	3.906250e-02	-8.593750e-02
154.534040	1.999359	dec_social_choice	1.999359	32.000000	n/a	8	3.057065e-02	3.057065e-02
154.534040	1.999359	dec_choice	1.999359	32.000000	n/a	8	3.125000e-02	3.125000e-02
154.534040	1.999359	dec_social_accept	1.999359	32.000000	n/a	8	-1.136364e-01	-1.136364e-01
154.534040	1.999359	dec_accept	1.999359	32.000000	n/a	8	-1.136364e-01	-1.136364e-01
154.534040	1.999359	dec_social_high	1.999359	32.000000	n/a	8	3.125000e-02	3.125000e-02
154.534040	1.999359	dec_social_accept_high	1.999359	32.000000	n/a	8	3.125000e-02	3.125000e-02
161.367800	1.164983	dec_social_choice	1.164983	16.000000	n/a	0	0	-2.194293e-01
161.367800	1.164983	dec_choice	1.164983	16.000000	n/a	0	0	-2.187500e-01
161.367800	1.164983	dec_social_reject	1.164983	16.000000	n/a	0	0	3.776042e-02
161.367800	1.164983	dec_reject	1.164983	16.000000	n/a	0	0	3.906250e-02
161.367800	1.164983	dec_social_low	1.164983	16.000000	n/a	0	-2.187500e-01	-2.187500e-01
161.367800	1.164983	dec_social_reject_low	1.164983	16.000000	n/a	2	-9.375000e-02	-2.187500e-01
170.633350	0.999984	dec_social_choice	0.999984	32.000000	n/a	16	2.805707e-01	2.805707e-01
170.633350	0.999984	dec_choice	0.999984	32.000000	n/a	16	2.812500e-01	2.812500e-01
170.633350	0.999984	dec_social_accept	0.999984	32.000000	n/a	16	1.363636e-01	1.363636e-01
170.633350	0.999984	dec_accept	0.999984	32.000000	n/a	16	1.363636e-01	1.363636e-01
170.633350	0.999984	dec_social_high	0.999984	32.000000	n/a	16	2.812500e-01	2.812500e-01
170.633350	0.999984	dec_social_accept_high	0.999984	32.000000	n/a	16	2.812500e-01	2.812500e-01
177.466550	0.966075	dec_nonsocial_choice	0.966075	32.000000	n/a	0	0	-2.194293e-01
177.466550	0.966075	dec_choice	0.966075	32.000000	n/a	0	0	-2.201087e-01
177.466550	0.966075	dec_nonsocial_reject	0.966075	32.000000	n/a	0	0	-2.473958e-02
177.466550	0.966075	dec_reject	0.966075	32.000000	n/a	0	0	-2.604167e-02
177.466550	0.966075	dec_nonsocial_low	0.966075	32.000000	n/a	0	-2.201087e-01	-2.201087e-01
177.466550	0.966075	dec_nonsocial_reject_low	0.966075	32.000000	n/a	2	-2.604167e-02	-8.854167e-02
188.333150	1.249893	dec_social_choice	1.249893	32.000000	n/a	0	0	-2.194293e-01
188.333150	1.249893	dec_choice	1.249893	32.000000	n/a	0	0	-2.187500e-01
188.333150	1.249893	dec_social_reject	1.249893	32.000000	n/a	0	0	6.510417e-03
188.333150	1.249893	dec_reject	1.249893	32.000000	n/a	0	0	7.812500e-03
188.333150	1.249893	dec_social_reject_low	1.249893	32.000000	n/a	3	-1.250000e-01	-2.187500e-01
195.983170	1.066320	dec_social_choice	1.066320	16.000000	n/a	0	0	-2.194293e-01
195.983170	1.066320	dec_choice	1.066320	16.000000	n/a	0	0	-2.187500e-01
195.983170	1.066320	dec_social_reject	1.066320	16.000000	n/a	0	0	-2.473958e-02
195.983170	1.066320	dec_reject	1.066320	16.000000	n/a	0	0	-2.343750e-02
195.983170	1.066320	dec_social_reject_low	1.066320	16.000000	n/a	1	-1.562500e-01	-2.187500e-01
203.634030	1.065701	dec_nonsocial_choice	1.065701	32.000000	n/a	0	0	-2.194293e-01
203.634030	1.065701	dec_choice	1.065701	32.000000	n/a	0	0	-2.201087e-01
203.634030	1.065701	dec_nonsocial_reject	1.065701	32.000000	n/a	0	0	-2.473958e-02
203.634030	1.065701	dec_reject	1.065701	32.000000	n/a	0	0	-2.604167e-02
203.634030	1.065701	dec_nonsocial_low	1.065701	32.000000	n/a	0	-2.201087e-01	-2.201087e-01
203.634030	1.065701	dec_nonsocial_reject_low	1.065701	32.000000	n/a	2	-2.604167e-02	-8.854167e-02
212.899430	1.066732	dec_nonsocial_choice	1.066732	16.000000	n/a	8	2.805707e-01	2.805707e-01
212.899430	1.066732	dec_choice	1.066732	16.000000	n/a	8	2.798913e-01	2.798913e-01
212.899430	1.066732	dec_nonsocial_accept	1.066732	16.000000	n/a	8	1.363636e-01	1.363636e-01
212.899430	1.066732	dec_accept	1.066732	16.000000	n/a	8	1.363636e-01	1.363636e-01
212.899430	1.066732	dec_nonsocial_accept_high	1.066732	16.000000	n/a	8	1.363636e-01	1.363636e-01
220.549290	1.550995	dec_nonsocial_choice	1.550995	16.000000	n/a	0	0	-2.194293e-01
220.549290	1.550995	dec_choice	1.550995	16.000000	n/a	0	0	-2.201087e-01
220.549290	1.550995	dec_nonsocial_reject	1.550995	16.000000	n/a	0	0	3.776042e-02
220.549290	1.550995	dec_reject	1.550995	16.000000	n/a	0	0	3.645833e-02
220.549290	1.550995	dec_nonsocial_reject_low	1.550995	16.000000	n/a	2	3.906250e-02	-8.593750e-02
228.200180	0.950996	dec_social_choice	0.950996	16.000000	n/a	0	0	-2.194293e-01
228.200180	0.950996	dec_choice	0.950996	16.000000	n/a	0	0	-2.187500e-01
228.200180	0.950996	dec_social_reject	0.950996	16.000000	n/a	0	0	-2.473958e-02
228.200180	0.950996	dec_reject	0.950996	16.000000	n/a	0	0	-2.343750e-02
228.200180	0.950996	dec_social_reject_low	0.950996	16.000000	n/a	1	-1.562500e-01	-2.187500e-01
235.032350	1.017791	dec_social_choice	1.017791	16.000000	n/a	0	0	-2.194293e-01
235.032350	1.017791	dec_choice	1.017791	16.000000	n/a	0	0	-2.187500e-01
235.032350	1.017791	dec_social_reject	1.017791	16.000000	n/a	0	0	-2.473958e-02
235.032350	1.017791	dec_reject	1.017791	16.000000	n/a	0	0	-2.343750e-02
235.032350	1.017791	dec_social_low	1.017791	16.000000	n/a	0	-2.187500e-01	-2.187500e-01
235.032350	1.017791	dec_social_reject_low	1.017791	16.000000	n/a	1	-1.562500e-01	-2.187500e-01
242.683070	1.033482	dec_nonsocial_choice	1.033482	16.000000	n/a	0	0	-2.194293e-01
242.683070	1.033482	dec_choice	1.033482	16.000000	n/a	0	0	-2.201087e-01
242.683070	1.033482	dec_nonsocial_reject	1.033482	16.000000	n/a	0	0	3.776042e-02
242.683070	1.033482	dec_reject	1.033482	16.000000	n/a	0	0	3.645833e-02
242.683070	1.033482	dec_nonsocial_low	1.033482	16.000000	n/a	0	-2.201087e-01	-2.201087e-01
242.683070	1.033482	dec_nonsocial_reject_low	1.033482	16.000000	n/a	2	3.645833e-02	-8.854167e-02
251.932950	1.066882	dec_social_choice	1.066882	32.000000	n/a	16	2.805707e-01	2.805707e-01
251.932950	1.066882	dec_choice	1.066882	32.000000	n/a	16	2.812500e-01	2.812500e-01
251.932950	1.066882	dec_social_accept	1.066882	32.000000	n/a	16	1.363636e-01	1.363636e-01
251.932950	1.066882	dec_accept	1.066882	32.000000	n/a	16	1.363636e-01	1.363636e-01
251.932950	1.066882	dec_social_accept_high	1.066882	32.000000	n/a	16	2.812500e-01	2.812500e-01
262.800230	1.783362	dec_social_choice	1.783362	32.000000	n/a	8	3.057065e-02	3.057065e-02
262.800230	1.783362	dec_choice	1.783362	32.000000	n/a	8	3.125000e-02	3.125000e-02
262.800230	1.783362	dec_social_accept	1.783362	32.000000	n/a	8	-1.136364e-01	-1.136364e-01
262.800230	1.783362	dec_accept	1.783362	32.000000	n/a	8	-1.136364e-01	-1.136364e-01
262.800230	1.783362	dec_social_high	1.783362	32.000000	n/a	8	3.125000e-02	3.125000e-02
262.800230	1.783362	dec_social_accept_high	1.783362	32.000000	n/a	8	3.125000e-02	3.125000e-02
273.666380	1.049907	dec_social_choice	1.049907	32.000000	n/a	0	0	-2.194293e-01
273.666380	1.049907	dec_choice	1.049907	32.000000	n/a	0	0	-2.187500e-01
273.666380	1.049907	dec_social_reject	1.049907	32.000000	n/a	0	0	-2.473958e-02
273.666380	1.049907	dec_reject	1.049907	32.000000	n/a	0	0	-2.343750e-02
273.666380	1.049907	dec_social_low	1.049907	32.000000	n/a	0	-2.187500e-01	-2.187500e-01
273.666380	1.049907	dec_social_reject_low	1.049907	32.000000	n/a	2	-1.562500e-01	-2.187500e-01
280.500730	1.298625	dec_social_choice	1.298625	32.000000	n/a	0	0	-2.194293e-01
280.500730	1.298625	dec_choice	1.298625	32.000000	n/a	0	0	-2.187500e-01
280.500730	1.298625	dec_social_reject	1.298625	32.000000	n/a	0	0	6.510417e-03
280.500730	1.298625	dec_reject	1.298625	32.000000	n/a	0	0	7.812500e-03
280.500730	1.298625	dec_social_reject_low	1.298625	32.000000	n/a	3	-1.250000e-01	-2.187500e-01
287.332300	1.200754	dec_nonsocial_choice	1.200754	32.000000	n/a	16	2.805707e-01	2.805707e-01
287.332300	1.200754	dec_choice	1.200754	32.000000	n/a	16	2.798913e-01	2.798913e-01
287.332300	1.200754	dec_nonsocial_accept	1.200754	32.000000	n/a	16	1.363636e-01	1.363636e-01
287.332300	1.200754	dec_accept	1.200754	32.000000	n/a	16	1.363636e-01	1.363636e-01
287.332300	1.200754	dec_nonsocial_accept_high	1.200754	32.000000	n/a	16	1.363636e-01	1.363636e-01
299.817300	1.065669	dec_nonsocial_choice	1.065669	32.000000	n/a	0	0	-2.194293e-01
299.817300	1.065669	dec_choice	1.065669	32.000000	n/a	0	0	-2.201087e-01
299.817300	1.065669	dec_nonsocial_reject	1.065669	32.000000	n/a	0	0	6.510417e-03
299.817300	1.065669	dec_reject	1.065669	32.000000	n/a	0	0	5.208333e-03
299.817300	1.065669	dec_nonsocial_reject_low	1.065669	32.000000	n/a	3	7.812500e-03	-8.593750e-02
306.649300	0.983925	dec_social_choice	0.983925	32.000000	n/a	16	2.805707e-01	2.805707e-01
306.649300	0.983925	dec_choice	0.983925	32.000000	n/a	16	2.812500e-01	2.812500e-01
306.649300	0.983925	dec_social_accept	0.983925	32.000000	n/a	16	1.363636e-01	1.363636e-01
306.649300	0.983925	dec_accept	0.983925	32.000000	n/a	16	1.363636e-01	1.363636e-01
306.649300	0.983925	dec_social_accept_high	0.983925	32.000000	n/a	16	2.812500e-01	2.812500e-01
314.300050	3.766946	missed_trial	3.766946	32.000000	n/a	n/a	n/a	n/a
321.149660	3.766946	missed_trial	3.766946	32.000000	n/a	n/a	n/a	n/a
327.999270	0.866687	dec_nonsocial_choice	0.866687	16.000000	n/a	4	3.057065e-02	3.057065e-02
327.999270	0.866687	dec_choice	0.866687	16.000000	n/a	4	2.989130e-02	2.989130e-02
327.999270	0.866687	dec_nonsocial_accept	0.866687	16.000000	n/a	4	-1.136364e-01	-1.136364e-01
327.999270	0.866687	dec_accept	0.866687	16.000000	n/a	4	-1.136364e-01	-1.136364e-01
327.999270	0.866687	dec_nonsocial_accept_high	0.866687	16.000000	n/a	4	-1.136364e-01	-1.136364e-01
335.650270	0.982226	dec_nonsocial_choice	0.982226	16.000000	n/a	0	0	-2.194293e-01
335.650270	0.982226	dec_choice	0.982226	16.000000	n/a	0	0	-2.201087e-01
335.650270	0.982226	dec_nonsocial_reject	0.982226	16.000000	n/a	0	0	-2.473958e-02
335.650270	0.982226	dec_reject	0.982226	16.000000	n/a	0	0	-2.604167e-02
335.650270	0.982226	dec_nonsocial_reject_low	0.982226	16.000000	n/a	1	-2.343750e-02	-8.593750e-02
342.482940	1.016617	dec_nonsocial_choice	1.016617	32.000000	n/a	8	3.057065e-02	3.057065e-02
342.482940	1.016617	dec_choice	1.016617	32.000000	n/a	8	2.989130e-02	2.989130e-02
342.482940	1.016617	dec_nonsocial_accept	1.016617	32.000000	n/a	8	-1.136364e-01	-1.136364e-01
342.482940	1.016617	dec_accept	1.016617	32.000000	n/a	8	-1.136364e-01	-1.136364e-01
342.482940	1.016617	dec_nonsocial_high	1.016617	32.000000	n/a	8	2.989130e-02	2.989130e-02
342.482940	1.016617	dec_nonsocial_accept_high	1.016617	32.000000	n/a	8	-1.136364e-01	-1.136364e-01
349.317200	1.032385	dec_nonsocial_choice	1.032385	32.000000	n/a	0	0	-2.194293e-01
349.317200	1.032385	dec_choice	1.032385	32.000000	n/a	0	0	-2.201087e-01
349.317200	1.032385	dec_nonsocial_reject	1.032385	32.000000	n/a	0	0	6.510417e-03
349.317200	1.032385	dec_reject	1.032385	32.000000	n/a	0	0	5.208333e-03
349.317200	1.032385	dec_nonsocial_low	1.032385	32.000000	n/a	0	-2.201087e-01	-2.201087e-01
349.317200	1.032385	dec_nonsocial_reject_low	1.032385	32.000000	n/a	3	5.208333e-03	-8.854167e-02
356.966550	0.999749	dec_nonsocial_choice	0.999749	16.000000	n/a	0	0	-2.194293e-01
356.966550	0.999749	dec_choice	0.999749	16.000000	n/a	0	0	-2.201087e-01
356.966550	0.999749	dec_nonsocial_reject	0.999749	16.000000	n/a	0	0	-2.473958e-02
356.966550	0.999749	dec_reject	0.999749	16.000000	n/a	0	0	-2.604167e-02
356.966550	0.999749	dec_nonsocial_low	0.999749	16.000000	n/a	0	-2.201087e-01	-2.201087e-01
356.966550	0.999749	dec_nonsocial_reject_low	0.999749	16.000000	n/a	1	-2.604167e-02	-8.854167e-02
363.799320	0.850671	dec_nonsocial_choice	0.850671	32.000000	n/a	8	3.057065e-02	3.057065e-02
363.799320	0.850671	dec_choice	0.850671	32.000000	n/a	8	2.989130e-02	2.989130e-02
363.799320	0.850671	dec_nonsocial_accept	0.850671	32.000000	n/a	8	-1.136364e-01	-1.136364e-01
363.799320	0.850671	dec_accept	0.850671	32.000000	n/a	8	-1.136364e-01	-1.136364e-01
363.799320	0.850671	dec_nonsocial_accept_high	0.850671	32.000000	n/a	8	-1.136364e-01	-1.136364e-01
370.632970	1.000000	dec_nonsocial_choice	1.000000	32.000000	n/a	0	0	-2.194293e-01
370.632970	1.000000	dec_choice	1.000000	32.000000	n/a	0	0	-2.201087e-01
370.632970	1.000000	dec_nonsocial_reject	1.000000	32.000000	n/a	0	0	-2.473958e-02
370.632970	1.000000	dec_reject	1.000000	32.000000	n/a	0	0	-2.604167e-02
370.632970	1.000000	dec_nonsocial_low	1.000000	32.000000	n/a	0	-2.201087e-01	-2.201087e-01
370.632970	1.000000	dec_nonsocial_reject_low	1.000000	32.000000	n/a	2	-2.604167e-02	-8.854167e-02
