onset	duration	trial_type	response_time	Endowment	Endowment_pmod	Decision	Decision_pmod	Offer_pmod
4.600009	2	cue_social	n/a	32	7	n/a	n/a	n/a
4.600009	2	cue_social_high	n/a	32	7	n/a	n/a	n/a
13.768003	2	cue_nonsocial	n/a	16	-9	n/a	n/a	n/a
13.768003	2	cue_nonsocial_low	n/a	16	-9	n/a	n/a	n/a
24.752312	2	cue_social	n/a	16	-9	n/a	n/a	n/a
24.752312	2	cue_social_low	n/a	16	-9	n/a	n/a	n/a
32.287598	2	cue_social	n/a	16	-9	n/a	n/a	n/a
32.287598	2	cue_social_low	n/a	16	-9	n/a	n/a	n/a
40.007910	2	cue_social	n/a	16	-9	n/a	n/a	n/a
40.007910	2	cue_social_low	n/a	16	-9	n/a	n/a	n/a
46.767880	2	cue_nonsocial	n/a	32	7	n/a	n/a	n/a
46.767880	2	cue_nonsocial_high	n/a	32	7	n/a	n/a	n/a
53.696950	2	cue_social	n/a	32	7	n/a	n/a	n/a
53.696950	2	cue_social_high	n/a	32	7	n/a	n/a	n/a
61.323242	2	cue_social	n/a	32	7	n/a	n/a	n/a
61.323242	2	cue_social_high	n/a	32	7	n/a	n/a	n/a
73.834480	2	cue_social	n/a	32	7	n/a	n/a	n/a
73.834480	2	cue_social_high	n/a	32	7	n/a	n/a	n/a
83.079360	2	cue_social	n/a	32	7	n/a	n/a	n/a
83.079360	2	cue_social_high	n/a	32	7	n/a	n/a	n/a
89.819060	2	cue_nonsocial	n/a	32	7	n/a	n/a	n/a
89.819060	2	cue_nonsocial_high	n/a	32	7	n/a	n/a	n/a
97.529060	2	cue_social	n/a	16	-9	n/a	n/a	n/a
97.529060	2	cue_social_low	n/a	16	-9	n/a	n/a	n/a
106.733610	2	cue_nonsocial	n/a	16	-9	n/a	n/a	n/a
106.733610	2	cue_nonsocial_low	n/a	16	-9	n/a	n/a	n/a
113.567245	2	cue_nonsocial	n/a	16	-9	n/a	n/a	n/a
113.567245	2	cue_nonsocial_low	n/a	16	-9	n/a	n/a	n/a
120.400750	2	cue_nonsocial	n/a	32	7	n/a	n/a	n/a
120.400750	2	cue_nonsocial_high	n/a	32	7	n/a	n/a	n/a
131.339830	2	cue_social	n/a	32	7	n/a	n/a	n/a
131.339830	2	cue_social_high	n/a	32	7	n/a	n/a	n/a
138.101240	2	cue_nonsocial	n/a	16	-9	n/a	n/a	n/a
138.101240	2	cue_nonsocial_low	n/a	16	-9	n/a	n/a	n/a
144.933820	2	cue_nonsocial	n/a	16	-9	n/a	n/a	n/a
144.933820	2	cue_nonsocial_low	n/a	16	-9	n/a	n/a	n/a
151.886800	2	cue_social	n/a	32	7	n/a	n/a	n/a
151.886800	2	cue_social_high	n/a	32	7	n/a	n/a	n/a
158.681240	2	cue_social	n/a	16	-9	n/a	n/a	n/a
158.681240	2	cue_social_low	n/a	16	-9	n/a	n/a	n/a
166.250670	2	cue_nonsocial	n/a	32	7	n/a	n/a	n/a
166.250670	2	cue_nonsocial_high	n/a	32	7	n/a	n/a	n/a
173.900920	2	cue_nonsocial	n/a	32	7	n/a	n/a	n/a
173.900920	2	cue_nonsocial_high	n/a	32	7	n/a	n/a	n/a
181.550840	2	cue_nonsocial	n/a	32	7	n/a	n/a	n/a
181.550840	2	cue_nonsocial_high	n/a	32	7	n/a	n/a	n/a
190.817290	2	cue_nonsocial	n/a	16	-9	n/a	n/a	n/a
190.817290	2	cue_nonsocial_low	n/a	16	-9	n/a	n/a	n/a
197.733410	2	cue_social	n/a	16	-9	n/a	n/a	n/a
197.733410	2	cue_social_low	n/a	16	-9	n/a	n/a	n/a
204.539930	2	cue_social	n/a	16	-9	n/a	n/a	n/a
204.539930	2	cue_social_low	n/a	16	-9	n/a	n/a	n/a
211.317170	2	cue_nonsocial	n/a	16	-9	n/a	n/a	n/a
211.317170	2	cue_nonsocial_low	n/a	16	-9	n/a	n/a	n/a
218.150730	2	cue_nonsocial	n/a	32	7	n/a	n/a	n/a
218.150730	2	cue_nonsocial_high	n/a	32	7	n/a	n/a	n/a
225.048810	2	cue_social	n/a	16	-9	n/a	n/a	n/a
225.048810	2	cue_social_low	n/a	16	-9	n/a	n/a	n/a
231.817110	2	cue_nonsocial	n/a	16	-9	n/a	n/a	n/a
231.817110	2	cue_nonsocial_low	n/a	16	-9	n/a	n/a	n/a
238.650630	2	cue_nonsocial	n/a	32	7	n/a	n/a	n/a
238.650630	2	cue_nonsocial_high	n/a	32	7	n/a	n/a	n/a
246.300600	2	cue_nonsocial	n/a	16	-9	n/a	n/a	n/a
246.300600	2	cue_nonsocial_low	n/a	16	-9	n/a	n/a	n/a
253.260850	2	cue_social	n/a	32	7	n/a	n/a	n/a
253.260850	2	cue_social_high	n/a	32	7	n/a	n/a	n/a
262.495300	2	cue_social	n/a	16	-9	n/a	n/a	n/a
262.495300	2	cue_social_low	n/a	16	-9	n/a	n/a	n/a
269.218000	2	cue_nonsocial	n/a	16	-9	n/a	n/a	n/a
269.218000	2	cue_nonsocial_low	n/a	16	-9	n/a	n/a	n/a
276.050450	2	cue_nonsocial	n/a	32	7	n/a	n/a	n/a
276.050450	2	cue_nonsocial_high	n/a	32	7	n/a	n/a	n/a
283.776150	2	cue_social	n/a	32	7	n/a	n/a	n/a
283.776150	2	cue_social_high	n/a	32	7	n/a	n/a	n/a
291.447270	2	cue_social	n/a	32	7	n/a	n/a	n/a
291.447270	2	cue_social_high	n/a	32	7	n/a	n/a	n/a
298.293580	2	cue_social	n/a	16	-9	n/a	n/a	n/a
298.293580	2	cue_social_low	n/a	16	-9	n/a	n/a	n/a
309.051270	2	cue_nonsocial	n/a	32	7	n/a	n/a	n/a
309.051270	2	cue_nonsocial_high	n/a	32	7	n/a	n/a	n/a
315.883670	2	cue_nonsocial	n/a	32	7	n/a	n/a	n/a
315.883670	2	cue_nonsocial_high	n/a	32	7	n/a	n/a	n/a
322.717160	2	cue_nonsocial	n/a	32	7	n/a	n/a	n/a
322.717160	2	cue_nonsocial_high	n/a	32	7	n/a	n/a	n/a
332.063840	2	cue_social	n/a	32	7	n/a	n/a	n/a
332.063840	2	cue_social_high	n/a	32	7	n/a	n/a	n/a
338.817470	2	cue_nonsocial	n/a	32	7	n/a	n/a	n/a
338.817470	2	cue_nonsocial_high	n/a	32	7	n/a	n/a	n/a
346.555080	2	cue_social	n/a	16	-9	n/a	n/a	n/a
346.555080	2	cue_social_low	n/a	16	-9	n/a	n/a	n/a
353.300480	2	cue_nonsocial	n/a	16	-9	n/a	n/a	n/a
353.300480	2	cue_nonsocial_low	n/a	16	-9	n/a	n/a	n/a
361.025630	2	cue_social	n/a	32	7	n/a	n/a	n/a
361.025630	2	cue_social_high	n/a	32	7	n/a	n/a	n/a
370.297800	2	cue_social	n/a	32	7	n/a	n/a	n/a
370.297800	2	cue_social_high	n/a	32	7	n/a	n/a	n/a
6.522978	1.050877	dec_social_choice	1.050877	32.000000	n/a	8	2.148438e-02	2.148438e-02
6.522978	1.050877	dec_choice	1.050877	32.000000	n/a	8	1.953125e-02	1.953125e-02
6.522978	1.050877	dec_social_accept	1.050877	32.000000	n/a	8	-3.503788e-02	-3.503788e-02
6.522978	1.050877	dec_accept	1.050877	32.000000	n/a	8	-3.125000e-02	-3.125000e-02
6.522978	1.050877	dec_social_high	1.050877	32.000000	n/a	8	1.953125e-02	1.953125e-02
6.522978	1.050877	dec_social_accept_high	1.050877	32.000000	n/a	8	1.953125e-02	1.953125e-02
15.773960	1.032716	dec_nonsocial_choice	1.032716	16.000000	n/a	8	2.714844e-01	2.714844e-01
15.773960	1.032716	dec_choice	1.032716	16.000000	n/a	8	2.734375e-01	2.734375e-01
15.773960	1.032716	dec_nonsocial_accept	1.032716	16.000000	n/a	8	2.149621e-01	2.149621e-01
15.773960	1.032716	dec_accept	1.032716	16.000000	n/a	8	2.104167e-01	2.104167e-01
15.773960	1.032716	dec_nonsocial_high	1.032716	16.000000	n/a	8	2.734375e-01	2.734375e-01
15.773960	1.032716	dec_nonsocial_accept_high	1.032716	16.000000	n/a	8	2.104167e-01	2.104167e-01
26.640097	1.099948	dec_social_choice	1.099948	16.000000	n/a	0	0	-2.285156e-01
26.640097	1.099948	dec_choice	1.099948	16.000000	n/a	0	0	-2.304688e-01
26.640097	1.099948	dec_social_reject	1.099948	16.000000	n/a	0	0	2.083333e-02
26.640097	1.099948	dec_reject	1.099948	16.000000	n/a	0	0	4.687500e-02
26.640097	1.099948	dec_social_reject_low	1.099948	16.000000	n/a	2	-1.054688e-01	-2.304688e-01
34.290977	0.898930	dec_social_choice	0.898930	16.000000	n/a	0	0	-2.285156e-01
34.290977	0.898930	dec_choice	0.898930	16.000000	n/a	0	0	-2.304688e-01
34.290977	0.898930	dec_social_reject	0.898930	16.000000	n/a	0	0	-4.166667e-02
34.290977	0.898930	dec_reject	0.898930	16.000000	n/a	0	0	-1.562500e-02
34.290977	0.898930	dec_social_low	0.898930	16.000000	n/a	0	-2.304688e-01	-2.304688e-01
34.290977	0.898930	dec_social_reject_low	0.898930	16.000000	n/a	1	-1.679688e-01	-2.304688e-01
41.938953	1.150807	dec_social_choice	1.150807	16.000000	n/a	4	2.148438e-02	2.148438e-02
41.938953	1.150807	dec_choice	1.150807	16.000000	n/a	4	1.953125e-02	1.953125e-02
41.938953	1.150807	dec_social_accept	1.150807	16.000000	n/a	4	-3.503788e-02	-3.503788e-02
41.938953	1.150807	dec_accept	1.150807	16.000000	n/a	4	-3.125000e-02	-3.125000e-02
41.938953	1.150807	dec_social_accept_high	1.150807	16.000000	n/a	4	1.953125e-02	1.953125e-02
48.772984	1.066434	dec_nonsocial_choice	1.066434	32.000000	n/a	16	2.714844e-01	2.714844e-01
48.772984	1.066434	dec_choice	1.066434	32.000000	n/a	16	2.734375e-01	2.734375e-01
48.772984	1.066434	dec_nonsocial_accept	1.066434	32.000000	n/a	16	2.149621e-01	2.149621e-01
48.772984	1.066434	dec_accept	1.066434	32.000000	n/a	16	2.104167e-01	2.104167e-01
48.772984	1.066434	dec_nonsocial_accept_high	1.066434	32.000000	n/a	16	2.187500e-01	2.187500e-01
55.607098	1.149704	dec_social_choice	1.149704	32.000000	n/a	16	2.714844e-01	2.714844e-01
55.607098	1.149704	dec_choice	1.149704	32.000000	n/a	16	2.695312e-01	2.695312e-01
55.607098	1.149704	dec_social_accept	1.149704	32.000000	n/a	16	2.149621e-01	2.149621e-01
55.607098	1.149704	dec_accept	1.149704	32.000000	n/a	16	2.187500e-01	2.187500e-01
55.607098	1.149704	dec_social_high	1.149704	32.000000	n/a	16	2.695312e-01	2.695312e-01
55.607098	1.149704	dec_social_accept_high	1.149704	32.000000	n/a	16	2.695312e-01	2.695312e-01
63.256332	1.183160	dec_social_choice	1.183160	32.000000	n/a	0	0	-2.285156e-01
63.256332	1.183160	dec_choice	1.183160	32.000000	n/a	0	0	-2.304688e-01
63.256332	1.183160	dec_social_reject	1.183160	32.000000	n/a	0	0	-1.041667e-02
63.256332	1.183160	dec_reject	1.183160	32.000000	n/a	0	0	1.562500e-02
63.256332	1.183160	dec_social_reject_low	1.183160	32.000000	n/a	3	-1.367188e-01	-2.304688e-01
75.740020	1.199709	dec_social_choice	1.199709	32.000000	n/a	2	-1.660156e-01	-1.660156e-01
75.740020	1.199709	dec_choice	1.199709	32.000000	n/a	2	-1.679688e-01	-1.679688e-01
75.740020	1.199709	dec_social_accept	1.199709	32.000000	n/a	2	-2.225379e-01	-2.225379e-01
75.740020	1.199709	dec_accept	1.199709	32.000000	n/a	2	-2.187500e-01	-2.187500e-01
75.740020	1.199709	dec_social_low	1.199709	32.000000	n/a	2	-1.679688e-01	-1.679688e-01
75.740020	1.199709	dec_social_accept_low	1.199709	32.000000	n/a	2	-1.679688e-01	-1.679688e-01
84.990074	0.849424	dec_social_choice	0.849424	32.000000	n/a	8	2.148438e-02	2.148438e-02
84.990074	0.849424	dec_choice	0.849424	32.000000	n/a	8	1.953125e-02	1.953125e-02
84.990074	0.849424	dec_social_accept	0.849424	32.000000	n/a	8	-3.503788e-02	-3.503788e-02
84.990074	0.849424	dec_accept	0.849424	32.000000	n/a	8	-3.125000e-02	-3.125000e-02
84.990074	0.849424	dec_social_accept_high	0.849424	32.000000	n/a	8	1.953125e-02	1.953125e-02
91.824190	1.082978	dec_nonsocial_choice	1.082978	32.000000	n/a	0	0	-2.285156e-01
91.824190	1.082978	dec_choice	1.082978	32.000000	n/a	0	0	-2.265625e-01
91.824190	1.082978	dec_nonsocial_reject	1.082978	32.000000	n/a	0	0	-1.041667e-02
91.824190	1.082978	dec_reject	1.082978	32.000000	n/a	0	0	-2.777778e-02
91.824190	1.082978	dec_nonsocial_reject_low	1.082978	32.000000	n/a	3	1.562500e-02	-7.812500e-02
99.473526	1.799637	dec_social_choice	1.799637	16.000000	n/a	2	-1.035156e-01	-1.035156e-01
99.473526	1.799637	dec_choice	1.799637	16.000000	n/a	2	-1.054688e-01	-1.054688e-01
99.473526	1.799637	dec_social_accept	1.799637	16.000000	n/a	2	-1.600379e-01	-1.600379e-01
99.473526	1.799637	dec_accept	1.799637	16.000000	n/a	2	-1.562500e-01	-1.562500e-01
99.473526	1.799637	dec_social_accept_low	1.799637	16.000000	n/a	2	-1.054688e-01	-1.054688e-01
108.740074	1.150373	dec_nonsocial_choice	1.150373	16.000000	n/a	4	2.148438e-02	2.148438e-02
108.740074	1.150373	dec_choice	1.150373	16.000000	n/a	4	2.343750e-02	2.343750e-02
108.740074	1.150373	dec_nonsocial_accept	1.150373	16.000000	n/a	4	-3.503788e-02	-3.503788e-02
108.740074	1.150373	dec_accept	1.150373	16.000000	n/a	4	-3.958333e-02	-3.958333e-02
108.740074	1.150373	dec_nonsocial_high	1.150373	16.000000	n/a	4	2.343750e-02	2.343750e-02
108.740074	1.150373	dec_nonsocial_accept_high	1.150373	16.000000	n/a	4	-3.958333e-02	-3.958333e-02
115.572480	1.167290	dec_nonsocial_choice	1.167290	16.000000	n/a	4	2.148438e-02	2.148438e-02
115.572480	1.167290	dec_choice	1.167290	16.000000	n/a	4	2.343750e-02	2.343750e-02
115.572480	1.167290	dec_nonsocial_accept	1.167290	16.000000	n/a	4	-3.503788e-02	-3.503788e-02
115.572480	1.167290	dec_accept	1.167290	16.000000	n/a	4	-3.958333e-02	-3.958333e-02
115.572480	1.167290	dec_nonsocial_accept_high	1.167290	16.000000	n/a	4	-3.125000e-02	-3.125000e-02
122.406230	1.583982	dec_nonsocial_choice	1.583982	32.000000	n/a	8	2.148438e-02	2.148438e-02
122.406230	1.583982	dec_choice	1.583982	32.000000	n/a	8	2.343750e-02	2.343750e-02
122.406230	1.583982	dec_nonsocial_accept	1.583982	32.000000	n/a	8	-3.503788e-02	-3.503788e-02
122.406230	1.583982	dec_accept	1.583982	32.000000	n/a	8	-3.958333e-02	-3.958333e-02
122.406230	1.583982	dec_nonsocial_high	1.583982	32.000000	n/a	8	2.343750e-02	2.343750e-02
122.406230	1.583982	dec_nonsocial_accept_high	1.583982	32.000000	n/a	8	-3.958333e-02	-3.958333e-02
133.274060	1.016009	dec_social_choice	1.016009	32.000000	n/a	0	0	-2.285156e-01
133.274060	1.016009	dec_choice	1.016009	32.000000	n/a	0	0	-2.304688e-01
133.274060	1.016009	dec_social_reject	1.016009	32.000000	n/a	0	0	-4.166667e-02
133.274060	1.016009	dec_reject	1.016009	32.000000	n/a	0	0	-1.562500e-02
133.274060	1.016009	dec_social_low	1.016009	32.000000	n/a	0	-2.304688e-01	-2.304688e-01
133.274060	1.016009	dec_social_reject_low	1.016009	32.000000	n/a	2	-1.679688e-01	-2.304688e-01
140.106980	1.249762	dec_nonsocial_choice	1.249762	16.000000	n/a	0	0	-2.285156e-01
140.106980	1.249762	dec_choice	1.249762	16.000000	n/a	0	0	-2.265625e-01
140.106980	1.249762	dec_nonsocial_reject	1.249762	16.000000	n/a	0	0	-4.166667e-02
140.106980	1.249762	dec_reject	1.249762	16.000000	n/a	0	0	-5.902778e-02
140.106980	1.249762	dec_nonsocial_low	1.249762	16.000000	n/a	0	-2.265625e-01	-2.265625e-01
140.106980	1.249762	dec_nonsocial_reject_low	1.249762	16.000000	n/a	1	-5.902778e-02	-1.215278e-01
146.940520	0.965696	dec_nonsocial_choice	0.965696	16.000000	n/a	0	0	-2.285156e-01
146.940520	0.965696	dec_choice	0.965696	16.000000	n/a	0	0	-2.265625e-01
146.940520	0.965696	dec_nonsocial_reject	0.965696	16.000000	n/a	0	0	3.958333e-01
146.940520	0.965696	dec_reject	0.965696	16.000000	n/a	0	0	3.784722e-01
146.940520	0.965696	dec_nonsocial_reject_low	0.965696	16.000000	n/a	8	4.218750e-01	-7.812500e-02
153.774080	0.816431	dec_social_choice	0.816431	32.000000	n/a	8	2.148438e-02	2.148438e-02
153.774080	0.816431	dec_choice	0.816431	32.000000	n/a	8	1.953125e-02	1.953125e-02
153.774080	0.816431	dec_social_accept	0.816431	32.000000	n/a	8	-3.503788e-02	-3.503788e-02
153.774080	0.816431	dec_accept	0.816431	32.000000	n/a	8	-3.125000e-02	-3.125000e-02
153.774080	0.816431	dec_social_accept_high	0.816431	32.000000	n/a	8	1.953125e-02	1.953125e-02
160.606260	1.550858	dec_social_choice	1.550858	16.000000	n/a	8	2.714844e-01	2.714844e-01
160.606260	1.550858	dec_choice	1.550858	16.000000	n/a	8	2.695312e-01	2.695312e-01
160.606260	1.550858	dec_social_accept	1.550858	16.000000	n/a	8	2.149621e-01	2.149621e-01
160.606260	1.550858	dec_accept	1.550858	16.000000	n/a	8	2.187500e-01	2.187500e-01
160.606260	1.550858	dec_social_high	1.550858	16.000000	n/a	8	2.695312e-01	2.695312e-01
160.606260	1.550858	dec_social_accept_high	1.550858	16.000000	n/a	8	2.695312e-01	2.695312e-01
168.256260	0.966620	dec_nonsocial_choice	0.966620	32.000000	n/a	0	0	-2.285156e-01
168.256260	0.966620	dec_choice	0.966620	32.000000	n/a	0	0	-2.265625e-01
168.256260	0.966620	dec_nonsocial_reject	0.966620	32.000000	n/a	0	0	-1.041667e-02
168.256260	0.966620	dec_reject	0.966620	32.000000	n/a	0	0	-2.777778e-02
168.256260	0.966620	dec_nonsocial_low	0.966620	32.000000	n/a	0	-2.265625e-01	-2.265625e-01
168.256260	0.966620	dec_nonsocial_reject_low	0.966620	32.000000	n/a	3	-2.777778e-02	-1.215278e-01
175.907270	1.282981	dec_nonsocial_choice	1.282981	32.000000	n/a	3	-1.347656e-01	-1.347656e-01
175.907270	1.282981	dec_choice	1.282981	32.000000	n/a	3	-1.328125e-01	-1.328125e-01
175.907270	1.282981	dec_nonsocial_accept	1.282981	32.000000	n/a	3	-1.912879e-01	-1.912879e-01
175.907270	1.282981	dec_accept	1.282981	32.000000	n/a	3	-1.958333e-01	-1.958333e-01
175.907270	1.282981	dec_nonsocial_accept_low	1.282981	32.000000	n/a	3	-1.875000e-01	-1.875000e-01
183.557110	0.965380	dec_nonsocial_choice	0.965380	32.000000	n/a	0	0	-2.285156e-01
183.557110	0.965380	dec_choice	0.965380	32.000000	n/a	0	0	-2.265625e-01
183.557110	0.965380	dec_nonsocial_reject	0.965380	32.000000	n/a	0	0	-1.041667e-02
183.557110	0.965380	dec_reject	0.965380	32.000000	n/a	0	0	-2.777778e-02
183.557110	0.965380	dec_nonsocial_reject_low	0.965380	32.000000	n/a	3	1.562500e-02	-7.812500e-02
192.823170	0.899986	dec_nonsocial_choice	0.899986	16.000000	n/a	4	2.148438e-02	2.148438e-02
192.823170	0.899986	dec_choice	0.899986	16.000000	n/a	4	2.343750e-02	2.343750e-02
192.823170	0.899986	dec_nonsocial_accept	0.899986	16.000000	n/a	4	-3.503788e-02	-3.503788e-02
192.823170	0.899986	dec_accept	0.899986	16.000000	n/a	4	-3.958333e-02	-3.958333e-02
192.823170	0.899986	dec_nonsocial_high	0.899986	16.000000	n/a	4	2.343750e-02	2.343750e-02
192.823170	0.899986	dec_nonsocial_accept_high	0.899986	16.000000	n/a	4	-3.958333e-02	-3.958333e-02
199.657120	0.949809	dec_social_choice	0.949809	16.000000	n/a	2	-1.035156e-01	-1.035156e-01
199.657120	0.949809	dec_choice	0.949809	16.000000	n/a	2	-1.054688e-01	-1.054688e-01
199.657120	0.949809	dec_social_accept	0.949809	16.000000	n/a	2	-1.600379e-01	-1.600379e-01
199.657120	0.949809	dec_accept	0.949809	16.000000	n/a	2	-1.562500e-01	-1.562500e-01
199.657120	0.949809	dec_social_low	0.949809	16.000000	n/a	2	-1.054688e-01	-1.054688e-01
199.657120	0.949809	dec_social_accept_low	0.949809	16.000000	n/a	2	-1.054688e-01	-1.054688e-01
206.489650	1.282858	dec_social_choice	1.282858	16.000000	n/a	8	2.714844e-01	2.714844e-01
206.489650	1.282858	dec_choice	1.282858	16.000000	n/a	8	2.695312e-01	2.695312e-01
206.489650	1.282858	dec_social_accept	1.282858	16.000000	n/a	8	2.149621e-01	2.149621e-01
206.489650	1.282858	dec_accept	1.282858	16.000000	n/a	8	2.187500e-01	2.187500e-01
206.489650	1.282858	dec_social_accept_high	1.282858	16.000000	n/a	8	2.695312e-01	2.695312e-01
213.324110	0.915254	dec_nonsocial_choice	0.915254	16.000000	n/a	0	0	-2.285156e-01
213.324110	0.915254	dec_choice	0.915254	16.000000	n/a	0	0	-2.265625e-01
213.324110	0.915254	dec_nonsocial_reject	0.915254	16.000000	n/a	0	0	-4.166667e-02
213.324110	0.915254	dec_reject	0.915254	16.000000	n/a	0	0	-5.902778e-02
213.324110	0.915254	dec_nonsocial_reject_low	0.915254	16.000000	n/a	1	-1.562500e-02	-7.812500e-02
220.157140	0.765899	dec_nonsocial_choice	0.765899	32.000000	n/a	3	-1.347656e-01	-1.347656e-01
220.157140	0.765899	dec_choice	0.765899	32.000000	n/a	3	-1.328125e-01	-1.328125e-01
220.157140	0.765899	dec_nonsocial_accept	0.765899	32.000000	n/a	3	-1.912879e-01	-1.912879e-01
220.157140	0.765899	dec_accept	0.765899	32.000000	n/a	3	-1.958333e-01	-1.958333e-01
220.157140	0.765899	dec_nonsocial_accept_low	0.765899	32.000000	n/a	3	-1.875000e-01	-1.875000e-01
226.990000	1.099790	dec_social_choice	1.099790	16.000000	n/a	4	2.148438e-02	2.148438e-02
226.990000	1.099790	dec_choice	1.099790	16.000000	n/a	4	1.953125e-02	1.953125e-02
226.990000	1.099790	dec_social_accept	1.099790	16.000000	n/a	4	-3.503788e-02	-3.503788e-02
226.990000	1.099790	dec_accept	1.099790	16.000000	n/a	4	-3.125000e-02	-3.125000e-02
226.990000	1.099790	dec_social_high	1.099790	16.000000	n/a	4	1.953125e-02	1.953125e-02
226.990000	1.099790	dec_social_accept_high	1.099790	16.000000	n/a	4	1.953125e-02	1.953125e-02
233.822740	1.500603	dec_nonsocial_choice	1.500603	16.000000	n/a	0	0	-2.285156e-01
233.822740	1.500603	dec_choice	1.500603	16.000000	n/a	0	0	-2.265625e-01
233.822740	1.500603	dec_nonsocial_reject	1.500603	16.000000	n/a	0	0	-4.166667e-02
233.822740	1.500603	dec_reject	1.500603	16.000000	n/a	0	0	-5.902778e-02
233.822740	1.500603	dec_nonsocial_low	1.500603	16.000000	n/a	0	-2.265625e-01	-2.265625e-01
233.822740	1.500603	dec_nonsocial_reject_low	1.500603	16.000000	n/a	1	-5.902778e-02	-1.215278e-01
240.657150	1.116096	dec_nonsocial_choice	1.116096	32.000000	n/a	2	-1.660156e-01	-1.660156e-01
240.657150	1.116096	dec_choice	1.116096	32.000000	n/a	2	-1.640625e-01	-1.640625e-01
240.657150	1.116096	dec_nonsocial_accept	1.116096	32.000000	n/a	2	-2.225379e-01	-2.225379e-01
240.657150	1.116096	dec_accept	1.116096	32.000000	n/a	2	-2.270833e-01	-2.270833e-01
240.657150	1.116096	dec_nonsocial_low	1.116096	32.000000	n/a	2	-1.640625e-01	-1.640625e-01
240.657150	1.116096	dec_nonsocial_accept_low	1.116096	32.000000	n/a	2	-2.270833e-01	-2.270833e-01
248.306880	0.965747	dec_nonsocial_choice	0.965747	16.000000	n/a	0	0	-2.285156e-01
248.306880	0.965747	dec_choice	0.965747	16.000000	n/a	0	0	-2.265625e-01
248.306880	0.965747	dec_nonsocial_reject	0.965747	16.000000	n/a	0	0	-4.166667e-02
248.306880	0.965747	dec_reject	0.965747	16.000000	n/a	0	0	-5.902778e-02
248.306880	0.965747	dec_nonsocial_reject_low	0.965747	16.000000	n/a	1	-1.562500e-02	-7.812500e-02
255.139180	0.984207	dec_social_choice	0.984207	32.000000	n/a	3	-1.347656e-01	-1.347656e-01
255.139180	0.984207	dec_choice	0.984207	32.000000	n/a	3	-1.367188e-01	-1.367188e-01
255.139180	0.984207	dec_social_accept	0.984207	32.000000	n/a	3	-1.912879e-01	-1.912879e-01
255.139180	0.984207	dec_accept	0.984207	32.000000	n/a	3	-1.875000e-01	-1.875000e-01
255.139180	0.984207	dec_social_low	0.984207	32.000000	n/a	3	-1.367188e-01	-1.367188e-01
255.139180	0.984207	dec_social_accept_low	0.984207	32.000000	n/a	3	-1.367188e-01	-1.367188e-01
264.390230	1.099738	dec_social_choice	1.099738	16.000000	n/a	8	2.714844e-01	2.714844e-01
264.390230	1.099738	dec_choice	1.099738	16.000000	n/a	8	2.695312e-01	2.695312e-01
264.390230	1.099738	dec_social_accept	1.099738	16.000000	n/a	8	2.149621e-01	2.149621e-01
264.390230	1.099738	dec_accept	1.099738	16.000000	n/a	8	2.187500e-01	2.187500e-01
264.390230	1.099738	dec_social_high	1.099738	16.000000	n/a	8	2.695312e-01	2.695312e-01
264.390230	1.099738	dec_social_accept_high	1.099738	16.000000	n/a	8	2.695312e-01	2.695312e-01
271.223630	1.032996	dec_nonsocial_choice	1.032996	16.000000	n/a	8	2.714844e-01	2.714844e-01
271.223630	1.032996	dec_choice	1.032996	16.000000	n/a	8	2.734375e-01	2.734375e-01
271.223630	1.032996	dec_nonsocial_accept	1.032996	16.000000	n/a	8	2.149621e-01	2.149621e-01
271.223630	1.032996	dec_accept	1.032996	16.000000	n/a	8	2.104167e-01	2.104167e-01
271.223630	1.032996	dec_nonsocial_high	1.032996	16.000000	n/a	8	2.734375e-01	2.734375e-01
271.223630	1.032996	dec_nonsocial_accept_high	1.032996	16.000000	n/a	8	2.104167e-01	2.104167e-01
278.057300	1.315234	dec_nonsocial_choice	1.315234	32.000000	n/a	16	2.714844e-01	2.714844e-01
278.057300	1.315234	dec_choice	1.315234	32.000000	n/a	16	2.734375e-01	2.734375e-01
278.057300	1.315234	dec_nonsocial_accept	1.315234	32.000000	n/a	16	2.149621e-01	2.149621e-01
278.057300	1.315234	dec_accept	1.315234	32.000000	n/a	16	2.104167e-01	2.104167e-01
278.057300	1.315234	dec_nonsocial_high	1.315234	32.000000	n/a	16	2.734375e-01	2.734375e-01
278.057300	1.315234	dec_nonsocial_accept_high	1.315234	32.000000	n/a	16	2.104167e-01	2.104167e-01
285.706360	0.966540	dec_social_choice	0.966540	32.000000	n/a	16	2.714844e-01	2.714844e-01
285.706360	0.966540	dec_choice	0.966540	32.000000	n/a	16	2.695312e-01	2.695312e-01
285.706360	0.966540	dec_social_accept	0.966540	32.000000	n/a	16	2.149621e-01	2.149621e-01
285.706360	0.966540	dec_accept	0.966540	32.000000	n/a	16	2.187500e-01	2.187500e-01
285.706360	0.966540	dec_social_high	0.966540	32.000000	n/a	16	2.695312e-01	2.695312e-01
285.706360	0.966540	dec_social_accept_high	0.966540	32.000000	n/a	16	2.695312e-01	2.695312e-01
293.356630	1.516305	dec_social_choice	1.516305	32.000000	n/a	2	-1.660156e-01	-1.660156e-01
293.356630	1.516305	dec_choice	1.516305	32.000000	n/a	2	-1.679688e-01	-1.679688e-01
293.356630	1.516305	dec_social_accept	1.516305	32.000000	n/a	2	-2.225379e-01	-2.225379e-01
293.356630	1.516305	dec_accept	1.516305	32.000000	n/a	2	-2.187500e-01	-2.187500e-01
293.356630	1.516305	dec_social_low	1.516305	32.000000	n/a	2	-1.679688e-01	-1.679688e-01
293.356630	1.516305	dec_social_accept_low	1.516305	32.000000	n/a	2	-1.679688e-01	-1.679688e-01
300.189100	0.950495	dec_social_choice	0.950495	16.000000	n/a	8	2.714844e-01	2.714844e-01
300.189100	0.950495	dec_choice	0.950495	16.000000	n/a	8	2.695312e-01	2.695312e-01
300.189100	0.950495	dec_social_accept	0.950495	16.000000	n/a	8	2.149621e-01	2.149621e-01
300.189100	0.950495	dec_accept	0.950495	16.000000	n/a	8	2.187500e-01	2.187500e-01
300.189100	0.950495	dec_social_accept_high	0.950495	16.000000	n/a	8	2.695312e-01	2.695312e-01
311.056200	1.417298	dec_nonsocial_choice	1.417298	32.000000	n/a	8	2.148438e-02	2.148438e-02
311.056200	1.417298	dec_choice	1.417298	32.000000	n/a	8	2.343750e-02	2.343750e-02
311.056200	1.417298	dec_nonsocial_accept	1.417298	32.000000	n/a	8	-3.503788e-02	-3.503788e-02
311.056200	1.417298	dec_accept	1.417298	32.000000	n/a	8	-3.958333e-02	-3.958333e-02
311.056200	1.417298	dec_nonsocial_high	1.417298	32.000000	n/a	8	2.343750e-02	2.343750e-02
311.056200	1.417298	dec_nonsocial_accept_high	1.417298	32.000000	n/a	8	-3.958333e-02	-3.958333e-02
317.890100	0.865599	dec_nonsocial_choice	0.865599	32.000000	n/a	8	2.148438e-02	2.148438e-02
317.890100	0.865599	dec_choice	0.865599	32.000000	n/a	8	2.343750e-02	2.343750e-02
317.890100	0.865599	dec_nonsocial_accept	0.865599	32.000000	n/a	8	-3.503788e-02	-3.503788e-02
317.890100	0.865599	dec_accept	0.865599	32.000000	n/a	8	-3.958333e-02	-3.958333e-02
317.890100	0.865599	dec_nonsocial_accept_high	0.865599	32.000000	n/a	8	-3.125000e-02	-3.125000e-02
324.723700	1.682664	dec_nonsocial_choice	1.682664	32.000000	n/a	3	-1.347656e-01	-1.347656e-01
324.723700	1.682664	dec_choice	1.682664	32.000000	n/a	3	-1.328125e-01	-1.328125e-01
324.723700	1.682664	dec_nonsocial_accept	1.682664	32.000000	n/a	3	-1.912879e-01	-1.912879e-01
324.723700	1.682664	dec_accept	1.682664	32.000000	n/a	3	-1.958333e-01	-1.958333e-01
324.723700	1.682664	dec_nonsocial_accept_low	1.682664	32.000000	n/a	3	-1.875000e-01	-1.875000e-01
333.989260	0.917287	dec_social_choice	0.917287	32.000000	n/a	0	0	-2.285156e-01
333.989260	0.917287	dec_choice	0.917287	32.000000	n/a	0	0	-2.304688e-01
333.989260	0.917287	dec_social_reject	0.917287	32.000000	n/a	0	0	-4.166667e-02
333.989260	0.917287	dec_reject	0.917287	32.000000	n/a	0	0	-1.562500e-02
333.989260	0.917287	dec_social_low	0.917287	32.000000	n/a	0	-2.304688e-01	-2.304688e-01
333.989260	0.917287	dec_social_reject_low	0.917287	32.000000	n/a	2	-1.679688e-01	-2.304688e-01
340.823700	0.699291	dec_nonsocial_choice	0.699291	32.000000	n/a	16	2.714844e-01	2.714844e-01
340.823700	0.699291	dec_choice	0.699291	32.000000	n/a	16	2.734375e-01	2.734375e-01
340.823700	0.699291	dec_nonsocial_accept	0.699291	32.000000	n/a	16	2.149621e-01	2.149621e-01
340.823700	0.699291	dec_accept	0.699291	32.000000	n/a	16	2.104167e-01	2.104167e-01
340.823700	0.699291	dec_nonsocial_accept_high	0.699291	32.000000	n/a	16	2.187500e-01	2.187500e-01
348.474120	0.915162	dec_social_choice	0.915162	16.000000	n/a	0	0	-2.285156e-01
348.474120	0.915162	dec_choice	0.915162	16.000000	n/a	0	0	-2.304688e-01
348.474120	0.915162	dec_social_reject	0.915162	16.000000	n/a	0	0	-4.166667e-02
348.474120	0.915162	dec_reject	0.915162	16.000000	n/a	0	0	-1.562500e-02
348.474120	0.915162	dec_social_low	0.915162	16.000000	n/a	0	-2.304688e-01	-2.304688e-01
348.474120	0.915162	dec_social_reject_low	0.915162	16.000000	n/a	1	-1.679688e-01	-2.304688e-01
355.306240	1.033816	dec_nonsocial_choice	1.033816	16.000000	n/a	0	0	-2.285156e-01
355.306240	1.033816	dec_choice	1.033816	16.000000	n/a	0	0	-2.265625e-01
355.306240	1.033816	dec_nonsocial_reject	1.033816	16.000000	n/a	0	0	-4.166667e-02
355.306240	1.033816	dec_reject	1.033816	16.000000	n/a	0	0	-5.902778e-02
355.306240	1.033816	dec_nonsocial_low	1.033816	16.000000	n/a	0	-2.265625e-01	-2.265625e-01
355.306240	1.033816	dec_nonsocial_reject_low	1.033816	16.000000	n/a	1	-5.902778e-02	-1.215278e-01
362.955780	0.934462	dec_social_choice	0.934462	32.000000	n/a	8	2.148438e-02	2.148438e-02
362.955780	0.934462	dec_choice	0.934462	32.000000	n/a	8	1.953125e-02	1.953125e-02
362.955780	0.934462	dec_social_accept	0.934462	32.000000	n/a	8	-3.503788e-02	-3.503788e-02
362.955780	0.934462	dec_accept	0.934462	32.000000	n/a	8	-3.125000e-02	-3.125000e-02
362.955780	0.934462	dec_social_high	0.934462	32.000000	n/a	8	1.953125e-02	1.953125e-02
362.955780	0.934462	dec_social_accept_high	0.934462	32.000000	n/a	8	1.953125e-02	1.953125e-02
372.206270	1.133309	dec_social_choice	1.133309	32.000000	n/a	3	-1.347656e-01	-1.347656e-01
372.206270	1.133309	dec_choice	1.133309	32.000000	n/a	3	-1.367188e-01	-1.367188e-01
372.206270	1.133309	dec_social_accept	1.133309	32.000000	n/a	3	-1.912879e-01	-1.912879e-01
372.206270	1.133309	dec_accept	1.133309	32.000000	n/a	3	-1.875000e-01	-1.875000e-01
372.206270	1.133309	dec_social_low	1.133309	32.000000	n/a	3	-1.367188e-01	-1.367188e-01
372.206270	1.133309	dec_social_accept_low	1.133309	32.000000	n/a	3	-1.367188e-01	-1.367188e-01
