onset	duration	trial_type	response_time	Endowment	Endowment_pmod	Decision	Decision_pmod	Offer_pmod
4.513727	2	cue_nonsocial	n/a	16	-3	n/a	n/a	n/a
4.513727	2	cue_nonsocial_low	n/a	16	-6	n/a	n/a	n/a
11.346762	2	cue_nonsocial	n/a	16	-3	n/a	n/a	n/a
11.346762	2	cue_nonsocial_low	n/a	16	-6	n/a	n/a	n/a
18.996511	2	cue_nonsocial	n/a	16	-3	n/a	n/a	n/a
18.996511	2	cue_nonsocial_low	n/a	16	-6	n/a	n/a	n/a
25.830570	2	cue_nonsocial	n/a	16	-3	n/a	n/a	n/a
25.830570	2	cue_nonsocial_low	n/a	16	-6	n/a	n/a	n/a
32.773544	2	cue_social	n/a	32	10	n/a	n/a	n/a
32.773544	2	cue_social_high	n/a	32	13	n/a	n/a	n/a
41.930737	2	cue_nonsocial	n/a	32	13	n/a	n/a	n/a
41.930737	2	cue_nonsocial_high	n/a	32	10	n/a	n/a	n/a
49.691822	2	cue_social	n/a	32	10	n/a	n/a	n/a
49.691822	2	cue_social_high	n/a	32	13	n/a	n/a	n/a
56.524620	2	cue_social	n/a	32	10	n/a	n/a	n/a
56.524620	2	cue_social_high	n/a	32	13	n/a	n/a	n/a
63.246876	2	cue_nonsocial	n/a	32	13	n/a	n/a	n/a
63.246876	2	cue_nonsocial_high	n/a	32	10	n/a	n/a	n/a
72.598915	2	cue_social	n/a	16	-6	n/a	n/a	n/a
72.598915	2	cue_social_low	n/a	16	-3	n/a	n/a	n/a
79.470720	2	cue_social	n/a	16	-6	n/a	n/a	n/a
79.470720	2	cue_social_low	n/a	16	-3	n/a	n/a	n/a
87.087190	2	cue_social	n/a	16	-6	n/a	n/a	n/a
87.087190	2	cue_social_low	n/a	16	-3	n/a	n/a	n/a
97.938940	2	cue_social	n/a	16	-6	n/a	n/a	n/a
97.938940	2	cue_social_low	n/a	16	-3	n/a	n/a	n/a
107.130646	2	cue_nonsocial	n/a	16	-3	n/a	n/a	n/a
107.130646	2	cue_nonsocial_low	n/a	16	-6	n/a	n/a	n/a
118.012830	2	cue_nonsocial	n/a	32	13	n/a	n/a	n/a
118.012830	2	cue_nonsocial_high	n/a	32	10	n/a	n/a	n/a
127.281170	2	cue_nonsocial	n/a	16	-3	n/a	n/a	n/a
127.281170	2	cue_nonsocial_low	n/a	16	-6	n/a	n/a	n/a
134.113080	2	cue_nonsocial	n/a	16	-3	n/a	n/a	n/a
134.113080	2	cue_nonsocial_low	n/a	16	-6	n/a	n/a	n/a
141.050080	2	cue_social	n/a	16	-6	n/a	n/a	n/a
141.050080	2	cue_social_low	n/a	16	-3	n/a	n/a	n/a
150.301090	2	cue_social	n/a	16	-6	n/a	n/a	n/a
150.301090	2	cue_social_low	n/a	16	-3	n/a	n/a	n/a
157.967420	2	cue_social	n/a	16	-6	n/a	n/a	n/a
157.967420	2	cue_social_low	n/a	16	-3	n/a	n/a	n/a
164.696910	2	cue_nonsocial	n/a	16	-3	n/a	n/a	n/a
164.696910	2	cue_nonsocial_low	n/a	16	-6	n/a	n/a	n/a
171.624620	2	cue_social	n/a	16	-6	n/a	n/a	n/a
171.624620	2	cue_social_low	n/a	16	-3	n/a	n/a	n/a
178.467990	2	cue_social	n/a	32	10	n/a	n/a	n/a
178.467990	2	cue_social_high	n/a	32	13	n/a	n/a	n/a
186.013430	2	cue_nonsocial	n/a	16	-3	n/a	n/a	n/a
186.013430	2	cue_nonsocial_low	n/a	16	-6	n/a	n/a	n/a
192.846300	2	cue_nonsocial	n/a	32	13	n/a	n/a	n/a
192.846300	2	cue_nonsocial_high	n/a	32	10	n/a	n/a	n/a
199.679750	2	cue_nonsocial	n/a	16	-3	n/a	n/a	n/a
199.679750	2	cue_nonsocial_low	n/a	16	-6	n/a	n/a	n/a
206.624900	2	cue_social	n/a	32	10	n/a	n/a	n/a
206.624900	2	cue_social_high	n/a	32	13	n/a	n/a	n/a
219.119800	2	cue_social	n/a	32	10	n/a	n/a	n/a
219.119800	2	cue_social_high	n/a	32	13	n/a	n/a	n/a
226.675050	2	cue_social	n/a	16	-6	n/a	n/a	n/a
226.675050	2	cue_social_low	n/a	16	-3	n/a	n/a	n/a
234.358080	2	cue_social	n/a	32	10	n/a	n/a	n/a
234.358080	2	cue_social_high	n/a	32	13	n/a	n/a	n/a
241.231520	2	cue_social	n/a	16	-6	n/a	n/a	n/a
241.231520	2	cue_social_low	n/a	16	-3	n/a	n/a	n/a
248.074390	2	cue_social	n/a	16	-6	n/a	n/a	n/a
248.074390	2	cue_social_low	n/a	16	-3	n/a	n/a	n/a
254.779540	2	cue_nonsocial	n/a	16	-3	n/a	n/a	n/a
254.779540	2	cue_nonsocial_low	n/a	16	-6	n/a	n/a	n/a
262.429660	2	cue_nonsocial	n/a	16	-3	n/a	n/a	n/a
262.429660	2	cue_nonsocial_low	n/a	16	-6	n/a	n/a	n/a
269.263180	2	cue_nonsocial	n/a	16	-3	n/a	n/a	n/a
269.263180	2	cue_nonsocial_low	n/a	16	-6	n/a	n/a	n/a
276.096070	2	cue_nonsocial	n/a	16	-3	n/a	n/a	n/a
276.096070	2	cue_nonsocial_low	n/a	16	-6	n/a	n/a	n/a
283.035680	2	cue_social	n/a	32	10	n/a	n/a	n/a
283.035680	2	cue_social_high	n/a	32	13	n/a	n/a	n/a
290.691680	2	cue_social	n/a	16	-6	n/a	n/a	n/a
290.691680	2	cue_social_low	n/a	16	-3	n/a	n/a	n/a
299.846130	2	cue_nonsocial	n/a	16	-3	n/a	n/a	n/a
299.846130	2	cue_nonsocial_low	n/a	16	-6	n/a	n/a	n/a
307.599820	2	cue_social	n/a	16	-6	n/a	n/a	n/a
307.599820	2	cue_social_low	n/a	16	-3	n/a	n/a	n/a
315.259300	2	cue_social	n/a	16	-6	n/a	n/a	n/a
315.259300	2	cue_social_low	n/a	16	-3	n/a	n/a	n/a
321.979430	2	cue_nonsocial	n/a	32	13	n/a	n/a	n/a
321.979430	2	cue_nonsocial_high	n/a	32	10	n/a	n/a	n/a
329.715940	2	cue_social	n/a	16	-6	n/a	n/a	n/a
329.715940	2	cue_social_low	n/a	16	-3	n/a	n/a	n/a
336.556300	2	cue_social	n/a	32	10	n/a	n/a	n/a
336.556300	2	cue_social_high	n/a	32	13	n/a	n/a	n/a
343.296200	2	cue_nonsocial	n/a	16	-3	n/a	n/a	n/a
343.296200	2	cue_nonsocial_low	n/a	16	-6	n/a	n/a	n/a
350.129520	2	cue_nonsocial	n/a	16	-3	n/a	n/a	n/a
350.129520	2	cue_nonsocial_low	n/a	16	-6	n/a	n/a	n/a
359.379640	2	cue_nonsocial	n/a	16	-3	n/a	n/a	n/a
359.379640	2	cue_nonsocial_low	n/a	16	-6	n/a	n/a	n/a
370.246300	2	cue_nonsocial	n/a	16	-3	n/a	n/a	n/a
370.246300	2	cue_nonsocial_low	n/a	16	-6	n/a	n/a	n/a
6.520014	1.165063	dec_nonsocial_choice	1.165063	16.000000	n/a	0	0	-2.330729e-01
6.520014	1.165063	dec_choice	1.165063	16.000000	n/a	0	0	-2.330729e-01
6.520014	1.165063	dec_nonsocial_reject	1.165063	16.000000	n/a	0	0	2.163462e-02
6.520014	1.165063	dec_reject	1.165063	16.000000	n/a	0	0	2.163462e-02
6.520014	1.165063	dec_nonsocial_low	1.165063	16.000000	n/a	0	-2.330729e-01	-2.330729e-01
6.520014	1.165063	dec_nonsocial_reject_low	1.165063	16.000000	n/a	2	2.163462e-02	-1.033654e-01
13.353018	1.332840	dec_nonsocial_choice	1.332840	16.000000	n/a	8	2.669271e-01	2.669271e-01
13.353018	1.332840	dec_choice	1.332840	16.000000	n/a	8	2.669271e-01	2.669271e-01
13.353018	1.332840	dec_nonsocial_accept	1.332840	16.000000	n/a	8	1.136364e-01	1.136364e-01
13.353018	1.332840	dec_accept	1.332840	16.000000	n/a	8	1.136364e-01	1.136364e-01
13.353018	1.332840	dec_nonsocial_high	1.332840	16.000000	n/a	8	2.669271e-01	2.669271e-01
13.353018	1.332840	dec_nonsocial_accept_high	1.332840	16.000000	n/a	8	1.136364e-01	1.136364e-01
21.002333	1.132693	dec_nonsocial_choice	1.132693	16.000000	n/a	8	2.669271e-01	2.669271e-01
21.002333	1.132693	dec_choice	1.132693	16.000000	n/a	8	2.669271e-01	2.669271e-01
21.002333	1.132693	dec_nonsocial_accept	1.132693	16.000000	n/a	8	1.136364e-01	1.136364e-01
21.002333	1.132693	dec_accept	1.132693	16.000000	n/a	8	1.136364e-01	1.136364e-01
21.002333	1.132693	dec_nonsocial_accept_high	1.132693	16.000000	n/a	8	1.136364e-01	1.136364e-01
27.836103	1.199215	dec_nonsocial_choice	1.199215	16.000000	n/a	0	0	-2.330729e-01
27.836103	1.199215	dec_choice	1.199215	16.000000	n/a	0	0	-2.330729e-01
27.836103	1.199215	dec_nonsocial_reject	1.199215	16.000000	n/a	0	0	2.163462e-02
27.836103	1.199215	dec_reject	1.199215	16.000000	n/a	0	0	2.163462e-02
27.836103	1.199215	dec_nonsocial_reject_low	1.199215	16.000000	n/a	2	2.163462e-02	-1.033654e-01
34.668915	1.682859	dec_social_choice	1.682859	32.000000	n/a	16	2.669271e-01	2.669271e-01
34.668915	1.682859	dec_choice	1.682859	32.000000	n/a	16	2.669271e-01	2.669271e-01
34.668915	1.682859	dec_social_accept	1.682859	32.000000	n/a	16	1.136364e-01	1.136364e-01
34.668915	1.682859	dec_accept	1.682859	32.000000	n/a	16	1.136364e-01	1.136364e-01
34.668915	1.682859	dec_social_accept_high	1.682859	32.000000	n/a	16	2.669271e-01	2.669271e-01
43.935870	1.115832	dec_nonsocial_choice	1.115832	32.000000	n/a	0	0	-2.330729e-01
43.935870	1.115832	dec_choice	1.115832	32.000000	n/a	0	0	-2.330729e-01
43.935870	1.115832	dec_nonsocial_reject	1.115832	32.000000	n/a	0	0	-4.086538e-02
43.935870	1.115832	dec_reject	1.115832	32.000000	n/a	0	0	-4.086538e-02
43.935870	1.115832	dec_nonsocial_low	1.115832	32.000000	n/a	0	-2.330729e-01	-2.330729e-01
43.935870	1.115832	dec_nonsocial_reject_low	1.115832	32.000000	n/a	2	-4.086538e-02	-1.033654e-01
51.585255	1.166558	dec_social_choice	1.166558	32.000000	n/a	16	2.669271e-01	2.669271e-01
51.585255	1.166558	dec_choice	1.166558	32.000000	n/a	16	2.669271e-01	2.669271e-01
51.585255	1.166558	dec_social_accept	1.166558	32.000000	n/a	16	1.136364e-01	1.136364e-01
51.585255	1.166558	dec_accept	1.166558	32.000000	n/a	16	1.136364e-01	1.136364e-01
51.585255	1.166558	dec_social_accept_high	1.166558	32.000000	n/a	16	2.669271e-01	2.669271e-01
58.418583	1.166242	dec_social_choice	1.166242	32.000000	n/a	0	0	-2.330729e-01
58.418583	1.166242	dec_choice	1.166242	32.000000	n/a	0	0	-2.330729e-01
58.418583	1.166242	dec_social_reject	1.166242	32.000000	n/a	0	0	-9.615385e-03
58.418583	1.166242	dec_reject	1.166242	32.000000	n/a	0	0	-9.615385e-03
58.418583	1.166242	dec_social_low	1.166242	32.000000	n/a	0	-2.330729e-01	-2.330729e-01
58.418583	1.166242	dec_social_reject_low	1.166242	32.000000	n/a	3	-1.393229e-01	-2.330729e-01
65.252540	1.533266	dec_nonsocial_choice	1.533266	32.000000	n/a	8	1.692708e-02	1.692708e-02
65.252540	1.533266	dec_choice	1.533266	32.000000	n/a	8	1.692708e-02	1.692708e-02
65.252540	1.533266	dec_nonsocial_accept	1.533266	32.000000	n/a	8	-1.363636e-01	-1.363636e-01
65.252540	1.533266	dec_accept	1.533266	32.000000	n/a	8	-1.363636e-01	-1.363636e-01
65.252540	1.533266	dec_nonsocial_high	1.533266	32.000000	n/a	8	1.692708e-02	1.692708e-02
65.252540	1.533266	dec_nonsocial_accept_high	1.533266	32.000000	n/a	8	-1.363636e-01	-1.363636e-01
74.518980	1.182363	dec_social_choice	1.182363	16.000000	n/a	8	2.669271e-01	2.669271e-01
74.518980	1.182363	dec_choice	1.182363	16.000000	n/a	8	2.669271e-01	2.669271e-01
74.518980	1.182363	dec_social_accept	1.182363	16.000000	n/a	8	1.136364e-01	1.136364e-01
74.518980	1.182363	dec_accept	1.182363	16.000000	n/a	8	1.136364e-01	1.136364e-01
74.518980	1.182363	dec_social_accept_high	1.182363	16.000000	n/a	8	2.669271e-01	2.669271e-01
81.351100	1.217651	dec_social_choice	1.217651	16.000000	n/a	0	0	-2.330729e-01
81.351100	1.217651	dec_choice	1.217651	16.000000	n/a	0	0	-2.330729e-01
81.351100	1.217651	dec_social_reject	1.217651	16.000000	n/a	0	0	-4.086538e-02
81.351100	1.217651	dec_reject	1.217651	16.000000	n/a	0	0	-4.086538e-02
81.351100	1.217651	dec_social_low	1.217651	16.000000	n/a	0	-2.330729e-01	-2.330729e-01
81.351100	1.217651	dec_social_reject_low	1.217651	16.000000	n/a	1	-1.705729e-01	-2.330729e-01
89.002075	1.316495	dec_social_choice	1.316495	16.000000	n/a	0	0	-2.330729e-01
89.002075	1.316495	dec_choice	1.316495	16.000000	n/a	0	0	-2.330729e-01
89.002075	1.316495	dec_social_reject	1.316495	16.000000	n/a	0	0	2.163462e-02
89.002075	1.316495	dec_reject	1.316495	16.000000	n/a	0	0	2.163462e-02
89.002075	1.316495	dec_social_low	1.316495	16.000000	n/a	0	-2.330729e-01	-2.330729e-01
89.002075	1.316495	dec_social_reject_low	1.316495	16.000000	n/a	2	-1.080729e-01	-2.330729e-01
99.868034	1.233709	dec_social_choice	1.233709	16.000000	n/a	8	2.669271e-01	2.669271e-01
99.868034	1.233709	dec_choice	1.233709	16.000000	n/a	8	2.669271e-01	2.669271e-01
99.868034	1.233709	dec_social_accept	1.233709	16.000000	n/a	8	1.136364e-01	1.136364e-01
99.868034	1.233709	dec_accept	1.233709	16.000000	n/a	8	1.136364e-01	1.136364e-01
99.868034	1.233709	dec_social_accept_high	1.233709	16.000000	n/a	8	2.669271e-01	2.669271e-01
109.136246	1.382794	dec_nonsocial_choice	1.382794	16.000000	n/a	0	0	-2.330729e-01
109.136246	1.382794	dec_choice	1.382794	16.000000	n/a	0	0	-2.330729e-01
109.136246	1.382794	dec_nonsocial_reject	1.382794	16.000000	n/a	0	0	2.163462e-02
109.136246	1.382794	dec_reject	1.382794	16.000000	n/a	0	0	2.163462e-02
109.136246	1.382794	dec_nonsocial_low	1.382794	16.000000	n/a	0	-2.330729e-01	-2.330729e-01
109.136246	1.382794	dec_nonsocial_reject_low	1.382794	16.000000	n/a	2	2.163462e-02	-1.033654e-01
120.019000	1.232992	dec_nonsocial_choice	1.232992	32.000000	n/a	16	2.669271e-01	2.669271e-01
120.019000	1.232992	dec_choice	1.232992	32.000000	n/a	16	2.669271e-01	2.669271e-01
120.019000	1.232992	dec_nonsocial_accept	1.232992	32.000000	n/a	16	1.136364e-01	1.136364e-01
120.019000	1.232992	dec_accept	1.232992	32.000000	n/a	16	1.136364e-01	1.136364e-01
120.019000	1.232992	dec_nonsocial_high	1.232992	32.000000	n/a	16	2.669271e-01	2.669271e-01
120.019000	1.232992	dec_nonsocial_accept_high	1.232992	32.000000	n/a	16	1.136364e-01	1.136364e-01
129.285660	1.516160	dec_nonsocial_choice	1.516160	16.000000	n/a	0	0	-2.330729e-01
129.285660	1.516160	dec_choice	1.516160	16.000000	n/a	0	0	-2.330729e-01
129.285660	1.516160	dec_nonsocial_reject	1.516160	16.000000	n/a	0	0	2.163462e-02
129.285660	1.516160	dec_reject	1.516160	16.000000	n/a	0	0	2.163462e-02
129.285660	1.516160	dec_nonsocial_low	1.516160	16.000000	n/a	0	-2.330729e-01	-2.330729e-01
129.285660	1.516160	dec_nonsocial_reject_low	1.516160	16.000000	n/a	2	2.163462e-02	-1.033654e-01
136.118940	1.882750	dec_nonsocial_choice	1.882750	16.000000	n/a	4	1.692708e-02	1.692708e-02
136.118940	1.882750	dec_choice	1.882750	16.000000	n/a	4	1.692708e-02	1.692708e-02
136.118940	1.882750	dec_nonsocial_accept	1.882750	16.000000	n/a	4	-1.363636e-01	-1.363636e-01
136.118940	1.882750	dec_accept	1.882750	16.000000	n/a	4	-1.363636e-01	-1.363636e-01
136.118940	1.882750	dec_nonsocial_high	1.882750	16.000000	n/a	4	1.692708e-02	1.692708e-02
136.118940	1.882750	dec_nonsocial_accept_high	1.882750	16.000000	n/a	4	-1.363636e-01	-1.363636e-01
142.953120	1.815360	dec_social_choice	1.815360	16.000000	n/a	4	1.692708e-02	1.692708e-02
142.953120	1.815360	dec_choice	1.815360	16.000000	n/a	4	1.692708e-02	1.692708e-02
142.953120	1.815360	dec_social_accept	1.815360	16.000000	n/a	4	-1.363636e-01	-1.363636e-01
142.953120	1.815360	dec_accept	1.815360	16.000000	n/a	4	-1.363636e-01	-1.363636e-01
142.953120	1.815360	dec_social_accept_high	1.815360	16.000000	n/a	4	1.692708e-02	1.692708e-02
152.217910	1.334295	dec_social_choice	1.334295	16.000000	n/a	0	0	-2.330729e-01
152.217910	1.334295	dec_choice	1.334295	16.000000	n/a	0	0	-2.330729e-01
152.217910	1.334295	dec_social_reject	1.334295	16.000000	n/a	0	0	2.163462e-02
152.217910	1.334295	dec_reject	1.334295	16.000000	n/a	0	0	2.163462e-02
152.217910	1.334295	dec_social_reject_low	1.334295	16.000000	n/a	2	-1.080729e-01	-2.330729e-01
159.867770	1.367078	dec_social_choice	1.367078	16.000000	n/a	8	2.669271e-01	2.669271e-01
159.867770	1.367078	dec_choice	1.367078	16.000000	n/a	8	2.669271e-01	2.669271e-01
159.867770	1.367078	dec_social_accept	1.367078	16.000000	n/a	8	1.136364e-01	1.136364e-01
159.867770	1.367078	dec_accept	1.367078	16.000000	n/a	8	1.136364e-01	1.136364e-01
159.867770	1.367078	dec_social_high	1.367078	16.000000	n/a	8	2.669271e-01	2.669271e-01
159.867770	1.367078	dec_social_accept_high	1.367078	16.000000	n/a	8	2.669271e-01	2.669271e-01
166.701370	1.816862	dec_nonsocial_choice	1.816862	16.000000	n/a	0	0	-2.330729e-01
166.701370	1.816862	dec_choice	1.816862	16.000000	n/a	0	0	-2.330729e-01
166.701370	1.816862	dec_nonsocial_reject	1.816862	16.000000	n/a	0	0	-4.086538e-02
166.701370	1.816862	dec_reject	1.816862	16.000000	n/a	0	0	-4.086538e-02
166.701370	1.816862	dec_nonsocial_low	1.816862	16.000000	n/a	0	-2.330729e-01	-2.330729e-01
166.701370	1.816862	dec_nonsocial_reject_low	1.816862	16.000000	n/a	1	-4.086538e-02	-1.033654e-01
173.535870	1.215722	dec_social_choice	1.215722	16.000000	n/a	8	2.669271e-01	2.669271e-01
173.535870	1.215722	dec_choice	1.215722	16.000000	n/a	8	2.669271e-01	2.669271e-01
173.535870	1.215722	dec_social_accept	1.215722	16.000000	n/a	8	1.136364e-01	1.136364e-01
173.535870	1.215722	dec_accept	1.215722	16.000000	n/a	8	1.136364e-01	1.136364e-01
173.535870	1.215722	dec_social_accept_high	1.215722	16.000000	n/a	8	2.669271e-01	2.669271e-01
180.368960	1.165800	dec_social_choice	1.165800	32.000000	n/a	0	0	-2.330729e-01
180.368960	1.165800	dec_choice	1.165800	32.000000	n/a	0	0	-2.330729e-01
180.368960	1.165800	dec_social_reject	1.165800	32.000000	n/a	0	0	-4.086538e-02
180.368960	1.165800	dec_reject	1.165800	32.000000	n/a	0	0	-4.086538e-02
180.368960	1.165800	dec_social_reject_low	1.165800	32.000000	n/a	2	-1.705729e-01	-2.330729e-01
188.018890	1.783033	dec_nonsocial_choice	1.783033	16.000000	n/a	0	0	-2.330729e-01
188.018890	1.783033	dec_choice	1.783033	16.000000	n/a	0	0	-2.330729e-01
188.018890	1.783033	dec_nonsocial_reject	1.783033	16.000000	n/a	0	0	1.466346e-01
188.018890	1.783033	dec_reject	1.783033	16.000000	n/a	0	0	1.466346e-01
188.018890	1.783033	dec_nonsocial_low	1.783033	16.000000	n/a	0	-2.330729e-01	-2.330729e-01
188.018890	1.783033	dec_nonsocial_reject_low	1.783033	16.000000	n/a	4	1.466346e-01	-1.033654e-01
194.852890	1.365861	dec_nonsocial_choice	1.365861	32.000000	n/a	8	1.692708e-02	1.692708e-02
194.852890	1.365861	dec_choice	1.365861	32.000000	n/a	8	1.692708e-02	1.692708e-02
194.852890	1.365861	dec_nonsocial_accept	1.365861	32.000000	n/a	8	-1.363636e-01	-1.363636e-01
194.852890	1.365861	dec_accept	1.365861	32.000000	n/a	8	-1.363636e-01	-1.363636e-01
194.852890	1.365861	dec_nonsocial_high	1.365861	32.000000	n/a	8	1.692708e-02	1.692708e-02
194.852890	1.365861	dec_nonsocial_accept_high	1.365861	32.000000	n/a	8	-1.363636e-01	-1.363636e-01
201.685600	1.615787	dec_nonsocial_choice	1.615787	16.000000	n/a	8	2.669271e-01	2.669271e-01
201.685600	1.615787	dec_choice	1.615787	16.000000	n/a	8	2.669271e-01	2.669271e-01
201.685600	1.615787	dec_nonsocial_accept	1.615787	16.000000	n/a	8	1.136364e-01	1.136364e-01
201.685600	1.615787	dec_accept	1.615787	16.000000	n/a	8	1.136364e-01	1.136364e-01
201.685600	1.615787	dec_nonsocial_high	1.615787	16.000000	n/a	8	2.669271e-01	2.669271e-01
201.685600	1.615787	dec_nonsocial_accept_high	1.615787	16.000000	n/a	8	1.136364e-01	1.136364e-01
208.518550	1.133392	dec_social_choice	1.133392	32.000000	n/a	8	1.692708e-02	1.692708e-02
208.518550	1.133392	dec_choice	1.133392	32.000000	n/a	8	1.692708e-02	1.692708e-02
208.518550	1.133392	dec_social_accept	1.133392	32.000000	n/a	8	-1.363636e-01	-1.363636e-01
208.518550	1.133392	dec_accept	1.133392	32.000000	n/a	8	-1.363636e-01	-1.363636e-01
208.518550	1.133392	dec_social_high	1.133392	32.000000	n/a	8	1.692708e-02	1.692708e-02
208.518550	1.133392	dec_social_accept_high	1.133392	32.000000	n/a	8	1.692708e-02	1.692708e-02
221.001070	1.367318	dec_social_choice	1.367318	32.000000	n/a	0	0	-2.330729e-01
221.001070	1.367318	dec_choice	1.367318	32.000000	n/a	0	0	-2.330729e-01
221.001070	1.367318	dec_social_reject	1.367318	32.000000	n/a	0	0	1.466346e-01
221.001070	1.367318	dec_reject	1.367318	32.000000	n/a	0	0	1.466346e-01
221.001070	1.367318	dec_social_reject_low	1.367318	32.000000	n/a	8	1.692708e-02	-2.330729e-01
228.636020	1.282736	dec_social_choice	1.282736	16.000000	n/a	0	0	-2.330729e-01
228.636020	1.282736	dec_choice	1.282736	16.000000	n/a	0	0	-2.330729e-01
228.636020	1.282736	dec_social_reject	1.282736	16.000000	n/a	0	0	-4.086538e-02
228.636020	1.282736	dec_reject	1.282736	16.000000	n/a	0	0	-4.086538e-02
228.636020	1.282736	dec_social_reject_low	1.282736	16.000000	n/a	1	-1.705729e-01	-2.330729e-01
236.284030	2.234263	dec_social_choice	2.234263	32.000000	n/a	8	1.692708e-02	1.692708e-02
236.284030	2.234263	dec_choice	2.234263	32.000000	n/a	8	1.692708e-02	1.692708e-02
236.284030	2.234263	dec_social_accept	2.234263	32.000000	n/a	8	-1.363636e-01	-1.363636e-01
236.284030	2.234263	dec_accept	2.234263	32.000000	n/a	8	-1.363636e-01	-1.363636e-01
236.284030	2.234263	dec_social_accept_high	2.234263	32.000000	n/a	8	1.692708e-02	1.692708e-02
243.118790	1.199892	dec_social_choice	1.199892	16.000000	n/a	0	0	-2.330729e-01
243.118790	1.199892	dec_choice	1.199892	16.000000	n/a	0	0	-2.330729e-01
243.118790	1.199892	dec_social_reject	1.199892	16.000000	n/a	0	0	-4.086538e-02
243.118790	1.199892	dec_reject	1.199892	16.000000	n/a	0	0	-4.086538e-02
243.118790	1.199892	dec_social_low	1.199892	16.000000	n/a	0	-2.330729e-01	-2.330729e-01
243.118790	1.199892	dec_social_reject_low	1.199892	16.000000	n/a	1	-1.705729e-01	-2.330729e-01
249.950740	1.667193	dec_social_choice	1.667193	16.000000	n/a	4	1.692708e-02	1.692708e-02
249.950740	1.667193	dec_choice	1.667193	16.000000	n/a	4	1.692708e-02	1.692708e-02
249.950740	1.667193	dec_social_accept	1.667193	16.000000	n/a	4	-1.363636e-01	-1.363636e-01
249.950740	1.667193	dec_accept	1.667193	16.000000	n/a	4	-1.363636e-01	-1.363636e-01
249.950740	1.667193	dec_social_high	1.667193	16.000000	n/a	4	1.692708e-02	1.692708e-02
249.950740	1.667193	dec_social_accept_high	1.667193	16.000000	n/a	4	1.692708e-02	1.692708e-02
256.785130	1.083243	dec_nonsocial_choice	1.083243	16.000000	n/a	8	2.669271e-01	2.669271e-01
256.785130	1.083243	dec_choice	1.083243	16.000000	n/a	8	2.669271e-01	2.669271e-01
256.785130	1.083243	dec_nonsocial_accept	1.083243	16.000000	n/a	8	1.136364e-01	1.136364e-01
256.785130	1.083243	dec_accept	1.083243	16.000000	n/a	8	1.136364e-01	1.136364e-01
256.785130	1.083243	dec_nonsocial_high	1.083243	16.000000	n/a	8	2.669271e-01	2.669271e-01
256.785130	1.083243	dec_nonsocial_accept_high	1.083243	16.000000	n/a	8	1.136364e-01	1.136364e-01
264.435270	1.116013	dec_nonsocial_choice	1.116013	16.000000	n/a	0	0	-2.330729e-01
264.435270	1.116013	dec_choice	1.116013	16.000000	n/a	0	0	-2.330729e-01
264.435270	1.116013	dec_nonsocial_reject	1.116013	16.000000	n/a	0	0	2.163462e-02
264.435270	1.116013	dec_reject	1.116013	16.000000	n/a	0	0	2.163462e-02
264.435270	1.116013	dec_nonsocial_low	1.116013	16.000000	n/a	0	-2.330729e-01	-2.330729e-01
264.435270	1.116013	dec_nonsocial_reject_low	1.116013	16.000000	n/a	2	2.163462e-02	-1.033654e-01
271.269200	0.815110	dec_nonsocial_choice	0.815110	16.000000	n/a	8	2.669271e-01	2.669271e-01
271.269200	0.815110	dec_choice	0.815110	16.000000	n/a	8	2.669271e-01	2.669271e-01
271.269200	0.815110	dec_nonsocial_accept	0.815110	16.000000	n/a	8	1.136364e-01	1.136364e-01
271.269200	0.815110	dec_accept	0.815110	16.000000	n/a	8	1.136364e-01	1.136364e-01
271.269200	0.815110	dec_nonsocial_high	0.815110	16.000000	n/a	8	2.669271e-01	2.669271e-01
271.269200	0.815110	dec_nonsocial_accept_high	0.815110	16.000000	n/a	8	1.136364e-01	1.136364e-01
278.102840	1.214927	dec_nonsocial_choice	1.214927	16.000000	n/a	0	0	-2.330729e-01
278.102840	1.214927	dec_choice	1.214927	16.000000	n/a	0	0	-2.330729e-01
278.102840	1.214927	dec_nonsocial_reject	1.214927	16.000000	n/a	0	0	-4.086538e-02
278.102840	1.214927	dec_reject	1.214927	16.000000	n/a	0	0	-4.086538e-02
278.102840	1.214927	dec_nonsocial_low	1.214927	16.000000	n/a	0	-2.330729e-01	-2.330729e-01
278.102840	1.214927	dec_nonsocial_reject_low	1.214927	16.000000	n/a	1	-4.086538e-02	-1.033654e-01
284.935100	1.266370	dec_social_choice	1.266370	32.000000	n/a	0	0	-2.330729e-01
284.935100	1.266370	dec_choice	1.266370	32.000000	n/a	0	0	-2.330729e-01
284.935100	1.266370	dec_social_reject	1.266370	32.000000	n/a	0	0	-4.086538e-02
284.935100	1.266370	dec_reject	1.266370	32.000000	n/a	0	0	-4.086538e-02
284.935100	1.266370	dec_social_low	1.266370	32.000000	n/a	0	-2.330729e-01	-2.330729e-01
284.935100	1.266370	dec_social_reject_low	1.266370	32.000000	n/a	2	-1.705729e-01	-2.330729e-01
292.585480	2.032811	dec_social_choice	2.032811	16.000000	n/a	4	1.692708e-02	1.692708e-02
292.585480	2.032811	dec_choice	2.032811	16.000000	n/a	4	1.692708e-02	1.692708e-02
292.585480	2.032811	dec_social_accept	2.032811	16.000000	n/a	4	-1.363636e-01	-1.363636e-01
292.585480	2.032811	dec_accept	2.032811	16.000000	n/a	4	-1.363636e-01	-1.363636e-01
292.585480	2.032811	dec_social_accept_high	2.032811	16.000000	n/a	4	1.692708e-02	1.692708e-02
301.851780	1.466349	dec_nonsocial_choice	1.466349	16.000000	n/a	0	0	-2.330729e-01
301.851780	1.466349	dec_choice	1.466349	16.000000	n/a	0	0	-2.330729e-01
301.851780	1.466349	dec_nonsocial_reject	1.466349	16.000000	n/a	0	0	-4.086538e-02
301.851780	1.466349	dec_reject	1.466349	16.000000	n/a	0	0	-4.086538e-02
301.851780	1.466349	dec_nonsocial_reject_low	1.466349	16.000000	n/a	1	-4.086538e-02	-1.033654e-01
309.501700	1.350101	dec_social_choice	1.350101	16.000000	n/a	0	0	-2.330729e-01
309.501700	1.350101	dec_choice	1.350101	16.000000	n/a	0	0	-2.330729e-01
309.501700	1.350101	dec_social_reject	1.350101	16.000000	n/a	0	0	2.163462e-02
309.501700	1.350101	dec_reject	1.350101	16.000000	n/a	0	0	2.163462e-02
309.501700	1.350101	dec_social_reject_low	1.350101	16.000000	n/a	2	-1.080729e-01	-2.330729e-01
317.151520	1.199995	dec_social_choice	1.199995	16.000000	n/a	0	0	-2.330729e-01
317.151520	1.199995	dec_choice	1.199995	16.000000	n/a	0	0	-2.330729e-01
317.151520	1.199995	dec_social_reject	1.199995	16.000000	n/a	0	0	2.163462e-02
317.151520	1.199995	dec_reject	1.199995	16.000000	n/a	0	0	2.163462e-02
317.151520	1.199995	dec_social_low	1.199995	16.000000	n/a	0	-2.330729e-01	-2.330729e-01
317.151520	1.199995	dec_social_reject_low	1.199995	16.000000	n/a	2	-1.080729e-01	-2.330729e-01
323.985800	0.965141	dec_nonsocial_choice	0.965141	32.000000	n/a	0	0	-2.330729e-01
323.985800	0.965141	dec_choice	0.965141	32.000000	n/a	0	0	-2.330729e-01
323.985800	0.965141	dec_nonsocial_reject	0.965141	32.000000	n/a	0	0	-9.615385e-03
323.985800	0.965141	dec_reject	0.965141	32.000000	n/a	0	0	-9.615385e-03
323.985800	0.965141	dec_nonsocial_reject_low	0.965141	32.000000	n/a	3	-9.615385e-03	-1.033654e-01
331.634060	1.167550	dec_social_choice	1.167550	16.000000	n/a	0	0	-2.330729e-01
331.634060	1.167550	dec_choice	1.167550	16.000000	n/a	0	0	-2.330729e-01
331.634060	1.167550	dec_social_reject	1.167550	16.000000	n/a	0	0	2.163462e-02
331.634060	1.167550	dec_reject	1.167550	16.000000	n/a	0	0	2.163462e-02
331.634060	1.167550	dec_social_low	1.167550	16.000000	n/a	0	-2.330729e-01	-2.330729e-01
331.634060	1.167550	dec_social_reject_low	1.167550	16.000000	n/a	2	-1.080729e-01	-2.330729e-01
338.468780	0.983384	dec_social_choice	0.983384	32.000000	n/a	0	0	-2.330729e-01
338.468780	0.983384	dec_choice	0.983384	32.000000	n/a	0	0	-2.330729e-01
338.468780	0.983384	dec_social_reject	0.983384	32.000000	n/a	0	0	-4.086538e-02
338.468780	0.983384	dec_reject	0.983384	32.000000	n/a	0	0	-4.086538e-02
338.468780	0.983384	dec_social_low	0.983384	32.000000	n/a	0	-2.330729e-01	-2.330729e-01
338.468780	0.983384	dec_social_reject_low	0.983384	32.000000	n/a	2	-1.705729e-01	-2.330729e-01
345.301400	0.934001	dec_nonsocial_choice	0.934001	16.000000	n/a	0	0	-2.330729e-01
345.301400	0.934001	dec_choice	0.934001	16.000000	n/a	0	0	-2.330729e-01
345.301400	0.934001	dec_nonsocial_reject	0.934001	16.000000	n/a	0	0	-4.086538e-02
345.301400	0.934001	dec_reject	0.934001	16.000000	n/a	0	0	-4.086538e-02
345.301400	0.934001	dec_nonsocial_low	0.934001	16.000000	n/a	0	-2.330729e-01	-2.330729e-01
345.301400	0.934001	dec_nonsocial_reject_low	0.934001	16.000000	n/a	1	-4.086538e-02	-1.033654e-01
352.135070	1.383066	dec_nonsocial_choice	1.383066	16.000000	n/a	0	0	-2.330729e-01
352.135070	1.383066	dec_choice	1.383066	16.000000	n/a	0	0	-2.330729e-01
352.135070	1.383066	dec_nonsocial_reject	1.383066	16.000000	n/a	0	0	-4.086538e-02
352.135070	1.383066	dec_reject	1.383066	16.000000	n/a	0	0	-4.086538e-02
352.135070	1.383066	dec_nonsocial_reject_low	1.383066	16.000000	n/a	1	-4.086538e-02	-1.033654e-01
361.384980	2.132535	dec_nonsocial_choice	2.132535	16.000000	n/a	4	1.692708e-02	1.692708e-02
361.384980	2.132535	dec_choice	2.132535	16.000000	n/a	4	1.692708e-02	1.692708e-02
361.384980	2.132535	dec_nonsocial_accept	2.132535	16.000000	n/a	4	-1.363636e-01	-1.363636e-01
361.384980	2.132535	dec_accept	2.132535	16.000000	n/a	4	-1.363636e-01	-1.363636e-01
361.384980	2.132535	dec_nonsocial_accept_high	2.132535	16.000000	n/a	4	-1.363636e-01	-1.363636e-01
372.251900	1.465465	dec_nonsocial_choice	1.465465	16.000000	n/a	4	1.692708e-02	1.692708e-02
372.251900	1.465465	dec_choice	1.465465	16.000000	n/a	4	1.692708e-02	1.692708e-02
372.251900	1.465465	dec_nonsocial_accept	1.465465	16.000000	n/a	4	-1.363636e-01	-1.363636e-01
372.251900	1.465465	dec_accept	1.465465	16.000000	n/a	4	-1.363636e-01	-1.363636e-01
372.251900	1.465465	dec_nonsocial_high	1.465465	16.000000	n/a	4	1.692708e-02	1.692708e-02
372.251900	1.465465	dec_nonsocial_accept_high	1.465465	16.000000	n/a	4	-1.363636e-01	-1.363636e-01
