onset	duration	trial_type	response_time	Endowment	Endowment_pmod	Decision	Decision_pmod	Offer_pmod
4.619983	2	cue_social	n/a	16	-7	n/a	n/a	n/a
4.619983	2	cue_social_low	n/a	16	-9	n/a	n/a	n/a
12.267096	2	cue_social	n/a	32	9	n/a	n/a	n/a
12.267096	2	cue_social_high	n/a	32	7	n/a	n/a	n/a
19.094904	2	cue_social	n/a	16	-7	n/a	n/a	n/a
19.094904	2	cue_social_low	n/a	16	-9	n/a	n/a	n/a
25.837517	2	cue_social	n/a	16	-7	n/a	n/a	n/a
25.837517	2	cue_social_low	n/a	16	-9	n/a	n/a	n/a
32.746530	2	cue_social	n/a	16	-7	n/a	n/a	n/a
32.746530	2	cue_social_low	n/a	16	-9	n/a	n/a	n/a
39.503498	2	cue_nonsocial	n/a	32	7	n/a	n/a	n/a
39.503498	2	cue_nonsocial_high	n/a	32	9	n/a	n/a	n/a
48.846992	2	cue_social	n/a	16	-7	n/a	n/a	n/a
48.846992	2	cue_social_low	n/a	16	-9	n/a	n/a	n/a
55.603400	2	cue_nonsocial	n/a	16	-9	n/a	n/a	n/a
55.603400	2	cue_nonsocial_low	n/a	16	-7	n/a	n/a	n/a
62.520760	2	cue_social	n/a	16	-7	n/a	n/a	n/a
62.520760	2	cue_social_low	n/a	16	-9	n/a	n/a	n/a
69.270170	2	cue_nonsocial	n/a	16	-9	n/a	n/a	n/a
69.270170	2	cue_nonsocial_low	n/a	16	-7	n/a	n/a	n/a
81.845985	2	cue_social	n/a	32	9	n/a	n/a	n/a
81.845985	2	cue_social_high	n/a	32	7	n/a	n/a	n/a
88.677350	2	cue_social	n/a	32	9	n/a	n/a	n/a
88.677350	2	cue_social_high	n/a	32	7	n/a	n/a	n/a
95.430960	2	cue_nonsocial	n/a	32	7	n/a	n/a	n/a
95.430960	2	cue_nonsocial_high	n/a	32	9	n/a	n/a	n/a
106.420210	2	cue_social	n/a	32	9	n/a	n/a	n/a
106.420210	2	cue_social_high	n/a	32	7	n/a	n/a	n/a
113.120150	2	cue_nonsocial	n/a	16	-9	n/a	n/a	n/a
113.120150	2	cue_nonsocial_low	n/a	16	-7	n/a	n/a	n/a
120.040980	2	cue_social	n/a	32	9	n/a	n/a	n/a
120.040980	2	cue_social_high	n/a	32	7	n/a	n/a	n/a
129.203490	2	cue_nonsocial	n/a	32	7	n/a	n/a	n/a
129.203490	2	cue_nonsocial_high	n/a	32	9	n/a	n/a	n/a
136.158700	2	cue_social	n/a	16	-7	n/a	n/a	n/a
136.158700	2	cue_social_low	n/a	16	-9	n/a	n/a	n/a
142.930040	2	cue_social	n/a	16	-7	n/a	n/a	n/a
142.930040	2	cue_social_low	n/a	16	-9	n/a	n/a	n/a
150.593570	2	cue_social	n/a	32	9	n/a	n/a	n/a
150.593570	2	cue_social_high	n/a	32	7	n/a	n/a	n/a
158.244570	2	cue_social	n/a	32	9	n/a	n/a	n/a
158.244570	2	cue_social_high	n/a	32	7	n/a	n/a	n/a
165.003650	2	cue_nonsocial	n/a	32	7	n/a	n/a	n/a
165.003650	2	cue_nonsocial_high	n/a	32	9	n/a	n/a	n/a
171.837160	2	cue_nonsocial	n/a	16	-9	n/a	n/a	n/a
171.837160	2	cue_nonsocial_low	n/a	16	-7	n/a	n/a	n/a
178.670560	2	cue_nonsocial	n/a	16	-9	n/a	n/a	n/a
178.670560	2	cue_nonsocial_low	n/a	16	-7	n/a	n/a	n/a
185.503170	2	cue_nonsocial	n/a	32	7	n/a	n/a	n/a
185.503170	2	cue_nonsocial_high	n/a	32	9	n/a	n/a	n/a
193.231350	2	cue_social	n/a	16	-7	n/a	n/a	n/a
193.231350	2	cue_social_low	n/a	16	-9	n/a	n/a	n/a
200.803240	2	cue_nonsocial	n/a	32	7	n/a	n/a	n/a
200.803240	2	cue_nonsocial_high	n/a	32	9	n/a	n/a	n/a
210.069960	2	cue_nonsocial	n/a	16	-9	n/a	n/a	n/a
210.069960	2	cue_nonsocial_low	n/a	16	-7	n/a	n/a	n/a
216.915370	2	cue_nonsocial	n/a	32	7	n/a	n/a	n/a
216.915370	2	cue_nonsocial_high	n/a	32	9	n/a	n/a	n/a
227.771260	2	cue_nonsocial	n/a	16	-9	n/a	n/a	n/a
227.771260	2	cue_nonsocial_low	n/a	16	-7	n/a	n/a	n/a
234.687550	2	cue_social	n/a	16	-7	n/a	n/a	n/a
234.687550	2	cue_social_low	n/a	16	-9	n/a	n/a	n/a
241.436580	2	cue_nonsocial	n/a	32	7	n/a	n/a	n/a
241.436580	2	cue_nonsocial_high	n/a	32	9	n/a	n/a	n/a
249.086520	2	cue_nonsocial	n/a	16	-9	n/a	n/a	n/a
249.086520	2	cue_nonsocial_low	n/a	16	-7	n/a	n/a	n/a
256.736700	2	cue_nonsocial	n/a	16	-9	n/a	n/a	n/a
256.736700	2	cue_nonsocial_low	n/a	16	-7	n/a	n/a	n/a
267.616000	2	cue_nonsocial	n/a	32	7	n/a	n/a	n/a
267.616000	2	cue_nonsocial_high	n/a	32	9	n/a	n/a	n/a
274.520320	2	cue_social	n/a	32	9	n/a	n/a	n/a
274.520320	2	cue_social_high	n/a	32	7	n/a	n/a	n/a
283.770750	2	cue_social	n/a	16	-7	n/a	n/a	n/a
283.770750	2	cue_social_low	n/a	16	-9	n/a	n/a	n/a
290.536800	2	cue_nonsocial	n/a	32	7	n/a	n/a	n/a
290.536800	2	cue_nonsocial_high	n/a	32	9	n/a	n/a	n/a
298.259500	2	cue_social	n/a	32	9	n/a	n/a	n/a
298.259500	2	cue_social_high	n/a	32	7	n/a	n/a	n/a
307.538970	2	cue_social	n/a	32	9	n/a	n/a	n/a
307.538970	2	cue_social_high	n/a	32	7	n/a	n/a	n/a
315.087040	2	cue_nonsocial	n/a	32	7	n/a	n/a	n/a
315.087040	2	cue_nonsocial_high	n/a	32	9	n/a	n/a	n/a
322.736450	2	cue_nonsocial	n/a	16	-9	n/a	n/a	n/a
322.736450	2	cue_nonsocial_low	n/a	16	-7	n/a	n/a	n/a
331.986360	2	cue_nonsocial	n/a	16	-9	n/a	n/a	n/a
331.986360	2	cue_nonsocial_low	n/a	16	-7	n/a	n/a	n/a
339.709350	2	cue_social	n/a	16	-7	n/a	n/a	n/a
339.709350	2	cue_social_low	n/a	16	-9	n/a	n/a	n/a
346.571620	2	cue_social	n/a	16	-7	n/a	n/a	n/a
346.571620	2	cue_social_low	n/a	16	-9	n/a	n/a	n/a
355.736760	2	cue_nonsocial	n/a	32	7	n/a	n/a	n/a
355.736760	2	cue_nonsocial_high	n/a	32	9	n/a	n/a	n/a
363.441800	2	cue_social	n/a	16	-7	n/a	n/a	n/a
363.441800	2	cue_social_low	n/a	16	-9	n/a	n/a	n/a
371.019650	2	cue_nonsocial	n/a	32	7	n/a	n/a	n/a
371.019650	2	cue_nonsocial_high	n/a	32	9	n/a	n/a	n/a
6.526052	1.399928	dec_social_choice	1.399928	16.000000	n/a	4	1.953125e-02	1.953125e-02
6.526052	1.399928	dec_choice	1.399928	16.000000	n/a	4	1.822917e-02	1.822917e-02
6.526052	1.399928	dec_social_accept	1.399928	16.000000	n/a	4	1.953125e-02	1.953125e-02
6.526052	1.399928	dec_accept	1.399928	16.000000	n/a	4	1.822917e-02	1.822917e-02
6.526052	1.399928	dec_social_accept_high	1.399928	16.000000	n/a	4	1.822917e-02	1.822917e-02
14.176065	1.233103	dec_social_choice	1.233103	32.000000	n/a	16	2.695312e-01	2.695312e-01
14.176065	1.233103	dec_choice	1.233103	32.000000	n/a	16	2.682292e-01	2.682292e-01
14.176065	1.233103	dec_social_accept	1.233103	32.000000	n/a	16	2.695312e-01	2.695312e-01
14.176065	1.233103	dec_accept	1.233103	32.000000	n/a	16	2.682292e-01	2.682292e-01
14.176065	1.233103	dec_social_accept_high	1.233103	32.000000	n/a	16	2.682292e-01	2.682292e-01
21.010082	1.399275	dec_social_choice	1.399275	16.000000	n/a	4	1.953125e-02	1.953125e-02
21.010082	1.399275	dec_choice	1.399275	16.000000	n/a	4	1.822917e-02	1.822917e-02
21.010082	1.399275	dec_social_accept	1.399275	16.000000	n/a	4	1.953125e-02	1.953125e-02
21.010082	1.399275	dec_accept	1.399275	16.000000	n/a	4	1.822917e-02	1.822917e-02
21.010082	1.399275	dec_social_accept_high	1.399275	16.000000	n/a	4	1.822917e-02	1.822917e-02
27.842844	0.682895	dec_social_choice	0.682895	16.000000	n/a	1	-1.679688e-01	-1.679688e-01
27.842844	0.682895	dec_choice	0.682895	16.000000	n/a	1	-1.692708e-01	-1.692708e-01
27.842844	0.682895	dec_social_accept	0.682895	16.000000	n/a	1	-1.679688e-01	-1.679688e-01
27.842844	0.682895	dec_accept	0.682895	16.000000	n/a	1	-1.692708e-01	-1.692708e-01
27.842844	0.682895	dec_social_accept_low	0.682895	16.000000	n/a	1	-1.692708e-01	-1.692708e-01
34.676090	1.482609	dec_social_choice	1.482609	16.000000	n/a	2	-1.054688e-01	-1.054688e-01
34.676090	1.482609	dec_choice	1.482609	16.000000	n/a	2	-1.067708e-01	-1.067708e-01
34.676090	1.482609	dec_social_accept	1.482609	16.000000	n/a	2	-1.054688e-01	-1.054688e-01
34.676090	1.482609	dec_accept	1.482609	16.000000	n/a	2	-1.067708e-01	-1.067708e-01
34.676090	1.482609	dec_social_accept_low	1.482609	16.000000	n/a	2	-1.067708e-01	-1.067708e-01
41.508907	1.666255	dec_nonsocial_choice	1.666255	32.000000	n/a	8	1.953125e-02	1.953125e-02
41.508907	1.666255	dec_choice	1.666255	32.000000	n/a	8	2.083333e-02	2.083333e-02
41.508907	1.666255	dec_nonsocial_accept	1.666255	32.000000	n/a	8	1.953125e-02	1.953125e-02
41.508907	1.666255	dec_accept	1.666255	32.000000	n/a	8	2.083333e-02	2.083333e-02
41.508907	1.666255	dec_nonsocial_accept_high	1.666255	32.000000	n/a	8	1.822917e-02	1.822917e-02
50.775173	1.483991	dec_social_choice	1.483991	16.000000	n/a	1	-1.679688e-01	-1.679688e-01
50.775173	1.483991	dec_choice	1.483991	16.000000	n/a	1	-1.692708e-01	-1.692708e-01
50.775173	1.483991	dec_social_accept	1.483991	16.000000	n/a	1	-1.679688e-01	-1.679688e-01
50.775173	1.483991	dec_accept	1.483991	16.000000	n/a	1	-1.692708e-01	-1.692708e-01
50.775173	1.483991	dec_social_low	1.483991	16.000000	n/a	1	-1.692708e-01	-1.692708e-01
50.775173	1.483991	dec_social_accept_low	1.483991	16.000000	n/a	1	-1.692708e-01	-1.692708e-01
57.610023	1.299119	dec_nonsocial_choice	1.299119	16.000000	n/a	8	2.695312e-01	2.695312e-01
57.610023	1.299119	dec_choice	1.299119	16.000000	n/a	8	2.708333e-01	2.708333e-01
57.610023	1.299119	dec_nonsocial_accept	1.299119	16.000000	n/a	8	2.695312e-01	2.695312e-01
57.610023	1.299119	dec_accept	1.299119	16.000000	n/a	8	2.708333e-01	2.708333e-01
57.610023	1.299119	dec_nonsocial_accept_high	1.299119	16.000000	n/a	8	2.682292e-01	2.682292e-01
64.441710	1.467275	dec_social_choice	1.467275	16.000000	n/a	2	-1.054688e-01	-1.054688e-01
64.441710	1.467275	dec_choice	1.467275	16.000000	n/a	2	-1.067708e-01	-1.067708e-01
64.441710	1.467275	dec_social_accept	1.467275	16.000000	n/a	2	-1.054688e-01	-1.054688e-01
64.441710	1.467275	dec_accept	1.467275	16.000000	n/a	2	-1.067708e-01	-1.067708e-01
64.441710	1.467275	dec_social_accept_low	1.467275	16.000000	n/a	2	-1.067708e-01	-1.067708e-01
71.275940	1.483210	dec_nonsocial_choice	1.483210	16.000000	n/a	1	-1.679688e-01	-1.679688e-01
71.275940	1.483210	dec_choice	1.483210	16.000000	n/a	1	-1.666667e-01	-1.666667e-01
71.275940	1.483210	dec_nonsocial_accept	1.483210	16.000000	n/a	1	-1.679688e-01	-1.679688e-01
71.275940	1.483210	dec_accept	1.483210	16.000000	n/a	1	-1.666667e-01	-1.666667e-01
71.275940	1.483210	dec_nonsocial_low	1.483210	16.000000	n/a	1	-1.666667e-01	-1.666667e-01
71.275940	1.483210	dec_nonsocial_accept_low	1.483210	16.000000	n/a	1	-1.666667e-01	-1.666667e-01
83.759040	1.233562	dec_social_choice	1.233562	32.000000	n/a	2	-1.679688e-01	-1.679688e-01
83.759040	1.233562	dec_choice	1.233562	32.000000	n/a	2	-1.692708e-01	-1.692708e-01
83.759040	1.233562	dec_social_accept	1.233562	32.000000	n/a	2	-1.679688e-01	-1.679688e-01
83.759040	1.233562	dec_accept	1.233562	32.000000	n/a	2	-1.692708e-01	-1.692708e-01
83.759040	1.233562	dec_social_low	1.233562	32.000000	n/a	2	-1.692708e-01	-1.692708e-01
83.759040	1.233562	dec_social_accept_low	1.233562	32.000000	n/a	2	-1.692708e-01	-1.692708e-01
90.592060	1.016645	dec_social_choice	1.016645	32.000000	n/a	16	2.695312e-01	2.695312e-01
90.592060	1.016645	dec_choice	1.016645	32.000000	n/a	16	2.682292e-01	2.682292e-01
90.592060	1.016645	dec_social_accept	1.016645	32.000000	n/a	16	2.695312e-01	2.695312e-01
90.592060	1.016645	dec_accept	1.016645	32.000000	n/a	16	2.682292e-01	2.682292e-01
90.592060	1.016645	dec_social_high	1.016645	32.000000	n/a	16	2.682292e-01	2.682292e-01
90.592060	1.016645	dec_social_accept_high	1.016645	32.000000	n/a	16	2.682292e-01	2.682292e-01
97.426120	1.482983	dec_nonsocial_choice	1.482983	32.000000	n/a	2	-1.679688e-01	-1.679688e-01
97.426120	1.482983	dec_choice	1.482983	32.000000	n/a	2	-1.666667e-01	-1.666667e-01
97.426120	1.482983	dec_nonsocial_accept	1.482983	32.000000	n/a	2	-1.679688e-01	-1.679688e-01
97.426120	1.482983	dec_accept	1.482983	32.000000	n/a	2	-1.666667e-01	-1.666667e-01
97.426120	1.482983	dec_nonsocial_low	1.482983	32.000000	n/a	2	-1.666667e-01	-1.666667e-01
97.426120	1.482983	dec_nonsocial_accept_low	1.482983	32.000000	n/a	2	-1.666667e-01	-1.666667e-01
108.292220	1.200365	dec_social_choice	1.200365	32.000000	n/a	3	-1.367188e-01	-1.367188e-01
108.292220	1.200365	dec_choice	1.200365	32.000000	n/a	3	-1.380208e-01	-1.380208e-01
108.292220	1.200365	dec_social_accept	1.200365	32.000000	n/a	3	-1.367188e-01	-1.367188e-01
108.292220	1.200365	dec_accept	1.200365	32.000000	n/a	3	-1.380208e-01	-1.380208e-01
108.292220	1.200365	dec_social_accept_low	1.200365	32.000000	n/a	3	-1.380208e-01	-1.380208e-01
115.126110	1.133007	dec_nonsocial_choice	1.133007	16.000000	n/a	1	-1.679688e-01	-1.679688e-01
115.126110	1.133007	dec_choice	1.133007	16.000000	n/a	1	-1.666667e-01	-1.666667e-01
115.126110	1.133007	dec_nonsocial_accept	1.133007	16.000000	n/a	1	-1.679688e-01	-1.679688e-01
115.126110	1.133007	dec_accept	1.133007	16.000000	n/a	1	-1.666667e-01	-1.666667e-01
115.126110	1.133007	dec_nonsocial_accept_low	1.133007	16.000000	n/a	1	-1.692708e-01	-1.692708e-01
121.959150	2.149942	dec_social_choice	2.149942	32.000000	n/a	16	2.695312e-01	2.695312e-01
121.959150	2.149942	dec_choice	2.149942	32.000000	n/a	16	2.682292e-01	2.682292e-01
121.959150	2.149942	dec_social_accept	2.149942	32.000000	n/a	16	2.695312e-01	2.695312e-01
121.959150	2.149942	dec_accept	2.149942	32.000000	n/a	16	2.682292e-01	2.682292e-01
121.959150	2.149942	dec_social_high	2.149942	32.000000	n/a	16	2.682292e-01	2.682292e-01
121.959150	2.149942	dec_social_accept_high	2.149942	32.000000	n/a	16	2.682292e-01	2.682292e-01
131.209090	1.333387	dec_nonsocial_choice	1.333387	32.000000	n/a	16	2.695312e-01	2.695312e-01
131.209090	1.333387	dec_choice	1.333387	32.000000	n/a	16	2.708333e-01	2.708333e-01
131.209090	1.333387	dec_nonsocial_accept	1.333387	32.000000	n/a	16	2.695312e-01	2.695312e-01
131.209090	1.333387	dec_accept	1.333387	32.000000	n/a	16	2.708333e-01	2.708333e-01
131.209090	1.333387	dec_nonsocial_accept_high	1.333387	32.000000	n/a	16	2.682292e-01	2.682292e-01
138.042040	1.383080	dec_social_choice	1.383080	16.000000	n/a	4	1.953125e-02	1.953125e-02
138.042040	1.383080	dec_choice	1.383080	16.000000	n/a	4	1.822917e-02	1.822917e-02
138.042040	1.383080	dec_social_accept	1.383080	16.000000	n/a	4	1.953125e-02	1.953125e-02
138.042040	1.383080	dec_accept	1.383080	16.000000	n/a	4	1.822917e-02	1.822917e-02
138.042040	1.383080	dec_social_accept_high	1.383080	16.000000	n/a	4	1.822917e-02	1.822917e-02
144.876310	1.199385	dec_social_choice	1.199385	16.000000	n/a	2	-1.054688e-01	-1.054688e-01
144.876310	1.199385	dec_choice	1.199385	16.000000	n/a	2	-1.067708e-01	-1.067708e-01
144.876310	1.199385	dec_social_accept	1.199385	16.000000	n/a	2	-1.054688e-01	-1.054688e-01
144.876310	1.199385	dec_accept	1.199385	16.000000	n/a	2	-1.067708e-01	-1.067708e-01
144.876310	1.199385	dec_social_accept_low	1.199385	16.000000	n/a	2	-1.067708e-01	-1.067708e-01
152.525150	1.367465	dec_social_choice	1.367465	32.000000	n/a	3	-1.367188e-01	-1.367188e-01
152.525150	1.367465	dec_choice	1.367465	32.000000	n/a	3	-1.380208e-01	-1.380208e-01
152.525150	1.367465	dec_social_accept	1.367465	32.000000	n/a	3	-1.367188e-01	-1.367188e-01
152.525150	1.367465	dec_accept	1.367465	32.000000	n/a	3	-1.380208e-01	-1.380208e-01
152.525150	1.367465	dec_social_accept_low	1.367465	32.000000	n/a	3	-1.380208e-01	-1.380208e-01
160.175220	1.183351	dec_social_choice	1.183351	32.000000	n/a	2	-1.679688e-01	-1.679688e-01
160.175220	1.183351	dec_choice	1.183351	32.000000	n/a	2	-1.692708e-01	-1.692708e-01
160.175220	1.183351	dec_social_accept	1.183351	32.000000	n/a	2	-1.679688e-01	-1.679688e-01
160.175220	1.183351	dec_accept	1.183351	32.000000	n/a	2	-1.692708e-01	-1.692708e-01
160.175220	1.183351	dec_social_low	1.183351	32.000000	n/a	2	-1.692708e-01	-1.692708e-01
160.175220	1.183351	dec_social_accept_low	1.183351	32.000000	n/a	2	-1.692708e-01	-1.692708e-01
167.010250	0.948892	dec_nonsocial_choice	0.948892	32.000000	n/a	16	2.695312e-01	2.695312e-01
167.010250	0.948892	dec_choice	0.948892	32.000000	n/a	16	2.708333e-01	2.708333e-01
167.010250	0.948892	dec_nonsocial_accept	0.948892	32.000000	n/a	16	2.695312e-01	2.695312e-01
167.010250	0.948892	dec_accept	0.948892	32.000000	n/a	16	2.708333e-01	2.708333e-01
167.010250	0.948892	dec_nonsocial_accept_high	0.948892	32.000000	n/a	16	2.682292e-01	2.682292e-01
173.842270	1.700250	dec_nonsocial_choice	1.700250	16.000000	n/a	4	1.953125e-02	1.953125e-02
173.842270	1.700250	dec_choice	1.700250	16.000000	n/a	4	2.083333e-02	2.083333e-02
173.842270	1.700250	dec_nonsocial_accept	1.700250	16.000000	n/a	4	1.953125e-02	1.953125e-02
173.842270	1.700250	dec_accept	1.700250	16.000000	n/a	4	2.083333e-02	2.083333e-02
173.842270	1.700250	dec_nonsocial_high	1.700250	16.000000	n/a	4	2.083333e-02	2.083333e-02
173.842270	1.700250	dec_nonsocial_accept_high	1.700250	16.000000	n/a	4	2.083333e-02	2.083333e-02
180.676160	1.415975	dec_nonsocial_choice	1.415975	16.000000	n/a	8	2.695312e-01	2.695312e-01
180.676160	1.415975	dec_choice	1.415975	16.000000	n/a	8	2.708333e-01	2.708333e-01
180.676160	1.415975	dec_nonsocial_accept	1.415975	16.000000	n/a	8	2.695312e-01	2.695312e-01
180.676160	1.415975	dec_accept	1.415975	16.000000	n/a	8	2.708333e-01	2.708333e-01
180.676160	1.415975	dec_nonsocial_high	1.415975	16.000000	n/a	8	2.708333e-01	2.708333e-01
180.676160	1.415975	dec_nonsocial_accept_high	1.415975	16.000000	n/a	8	2.708333e-01	2.708333e-01
187.510040	1.449117	dec_nonsocial_choice	1.449117	32.000000	n/a	2	-1.679688e-01	-1.679688e-01
187.510040	1.449117	dec_choice	1.449117	32.000000	n/a	2	-1.666667e-01	-1.666667e-01
187.510040	1.449117	dec_nonsocial_accept	1.449117	32.000000	n/a	2	-1.679688e-01	-1.679688e-01
187.510040	1.449117	dec_accept	1.449117	32.000000	n/a	2	-1.666667e-01	-1.666667e-01
187.510040	1.449117	dec_nonsocial_accept_low	1.449117	32.000000	n/a	2	-1.692708e-01	-1.692708e-01
195.159010	1.582590	dec_social_choice	1.582590	16.000000	n/a	1	-1.679688e-01	-1.679688e-01
195.159010	1.582590	dec_choice	1.582590	16.000000	n/a	1	-1.692708e-01	-1.692708e-01
195.159010	1.582590	dec_social_accept	1.582590	16.000000	n/a	1	-1.679688e-01	-1.679688e-01
195.159010	1.582590	dec_accept	1.582590	16.000000	n/a	1	-1.692708e-01	-1.692708e-01
195.159010	1.582590	dec_social_low	1.582590	16.000000	n/a	1	-1.692708e-01	-1.692708e-01
195.159010	1.582590	dec_social_accept_low	1.582590	16.000000	n/a	1	-1.692708e-01	-1.692708e-01
202.808560	1.267710	dec_nonsocial_choice	1.267710	32.000000	n/a	2	-1.679688e-01	-1.679688e-01
202.808560	1.267710	dec_choice	1.267710	32.000000	n/a	2	-1.666667e-01	-1.666667e-01
202.808560	1.267710	dec_nonsocial_accept	1.267710	32.000000	n/a	2	-1.679688e-01	-1.679688e-01
202.808560	1.267710	dec_accept	1.267710	32.000000	n/a	2	-1.666667e-01	-1.666667e-01
202.808560	1.267710	dec_nonsocial_low	1.267710	32.000000	n/a	2	-1.666667e-01	-1.666667e-01
202.808560	1.267710	dec_nonsocial_accept_low	1.267710	32.000000	n/a	2	-1.666667e-01	-1.666667e-01
212.075350	1.166492	dec_nonsocial_choice	1.166492	16.000000	n/a	4	1.953125e-02	1.953125e-02
212.075350	1.166492	dec_choice	1.166492	16.000000	n/a	4	2.083333e-02	2.083333e-02
212.075350	1.166492	dec_nonsocial_accept	1.166492	16.000000	n/a	4	1.953125e-02	1.953125e-02
212.075350	1.166492	dec_accept	1.166492	16.000000	n/a	4	2.083333e-02	2.083333e-02
212.075350	1.166492	dec_nonsocial_high	1.166492	16.000000	n/a	4	2.083333e-02	2.083333e-02
212.075350	1.166492	dec_nonsocial_accept_high	1.166492	16.000000	n/a	4	2.083333e-02	2.083333e-02
218.908720	1.633648	dec_nonsocial_choice	1.633648	32.000000	n/a	8	1.953125e-02	1.953125e-02
218.908720	1.633648	dec_choice	1.633648	32.000000	n/a	8	2.083333e-02	2.083333e-02
218.908720	1.633648	dec_nonsocial_accept	1.633648	32.000000	n/a	8	1.953125e-02	1.953125e-02
218.908720	1.633648	dec_accept	1.633648	32.000000	n/a	8	2.083333e-02	2.083333e-02
218.908720	1.633648	dec_nonsocial_high	1.633648	32.000000	n/a	8	2.083333e-02	2.083333e-02
218.908720	1.633648	dec_nonsocial_accept_high	1.633648	32.000000	n/a	8	2.083333e-02	2.083333e-02
229.775200	1.566584	dec_nonsocial_choice	1.566584	16.000000	n/a	4	1.953125e-02	1.953125e-02
229.775200	1.566584	dec_choice	1.566584	16.000000	n/a	4	2.083333e-02	2.083333e-02
229.775200	1.566584	dec_nonsocial_accept	1.566584	16.000000	n/a	4	1.953125e-02	1.953125e-02
229.775200	1.566584	dec_accept	1.566584	16.000000	n/a	4	2.083333e-02	2.083333e-02
229.775200	1.566584	dec_nonsocial_accept_high	1.566584	16.000000	n/a	4	1.822917e-02	1.822917e-02
236.608030	1.817694	dec_social_choice	1.817694	16.000000	n/a	2	-1.054688e-01	-1.054688e-01
236.608030	1.817694	dec_choice	1.817694	16.000000	n/a	2	-1.067708e-01	-1.067708e-01
236.608030	1.817694	dec_social_accept	1.817694	16.000000	n/a	2	-1.054688e-01	-1.054688e-01
236.608030	1.817694	dec_accept	1.817694	16.000000	n/a	2	-1.067708e-01	-1.067708e-01
236.608030	1.817694	dec_social_low	1.817694	16.000000	n/a	2	-1.067708e-01	-1.067708e-01
236.608030	1.817694	dec_social_accept_low	1.817694	16.000000	n/a	2	-1.067708e-01	-1.067708e-01
243.441850	2.000498	dec_nonsocial_choice	2.000498	32.000000	n/a	3	-1.367188e-01	-1.367188e-01
243.441850	2.000498	dec_choice	2.000498	32.000000	n/a	3	-1.354167e-01	-1.354167e-01
243.441850	2.000498	dec_nonsocial_accept	2.000498	32.000000	n/a	3	-1.367188e-01	-1.367188e-01
243.441850	2.000498	dec_accept	2.000498	32.000000	n/a	3	-1.354167e-01	-1.354167e-01
243.441850	2.000498	dec_nonsocial_low	2.000498	32.000000	n/a	3	-1.354167e-01	-1.354167e-01
243.441850	2.000498	dec_nonsocial_accept_low	2.000498	32.000000	n/a	3	-1.354167e-01	-1.354167e-01
251.092330	1.233498	dec_nonsocial_choice	1.233498	16.000000	n/a	8	2.695312e-01	2.695312e-01
251.092330	1.233498	dec_choice	1.233498	16.000000	n/a	8	2.708333e-01	2.708333e-01
251.092330	1.233498	dec_nonsocial_accept	1.233498	16.000000	n/a	8	2.695312e-01	2.695312e-01
251.092330	1.233498	dec_accept	1.233498	16.000000	n/a	8	2.708333e-01	2.708333e-01
251.092330	1.233498	dec_nonsocial_high	1.233498	16.000000	n/a	8	2.708333e-01	2.708333e-01
251.092330	1.233498	dec_nonsocial_accept_high	1.233498	16.000000	n/a	8	2.708333e-01	2.708333e-01
258.742220	1.366257	dec_nonsocial_choice	1.366257	16.000000	n/a	1	-1.679688e-01	-1.679688e-01
258.742220	1.366257	dec_choice	1.366257	16.000000	n/a	1	-1.666667e-01	-1.666667e-01
258.742220	1.366257	dec_nonsocial_accept	1.366257	16.000000	n/a	1	-1.679688e-01	-1.679688e-01
258.742220	1.366257	dec_accept	1.366257	16.000000	n/a	1	-1.666667e-01	-1.666667e-01
258.742220	1.366257	dec_nonsocial_accept_low	1.366257	16.000000	n/a	1	-1.692708e-01	-1.692708e-01
269.608950	1.333307	dec_nonsocial_choice	1.333307	32.000000	n/a	16	2.695312e-01	2.695312e-01
269.608950	1.333307	dec_choice	1.333307	32.000000	n/a	16	2.708333e-01	2.708333e-01
269.608950	1.333307	dec_nonsocial_accept	1.333307	32.000000	n/a	16	2.695312e-01	2.695312e-01
269.608950	1.333307	dec_accept	1.333307	32.000000	n/a	16	2.708333e-01	2.708333e-01
269.608950	1.333307	dec_nonsocial_high	1.333307	32.000000	n/a	16	2.708333e-01	2.708333e-01
269.608950	1.333307	dec_nonsocial_accept_high	1.333307	32.000000	n/a	16	2.708333e-01	2.708333e-01
276.441280	1.150915	dec_social_choice	1.150915	32.000000	n/a	16	2.695312e-01	2.695312e-01
276.441280	1.150915	dec_choice	1.150915	32.000000	n/a	16	2.682292e-01	2.682292e-01
276.441280	1.150915	dec_social_accept	1.150915	32.000000	n/a	16	2.695312e-01	2.695312e-01
276.441280	1.150915	dec_accept	1.150915	32.000000	n/a	16	2.682292e-01	2.682292e-01
276.441280	1.150915	dec_social_high	1.150915	32.000000	n/a	16	2.682292e-01	2.682292e-01
276.441280	1.150915	dec_social_accept_high	1.150915	32.000000	n/a	16	2.682292e-01	2.682292e-01
285.708470	0.900359	dec_social_choice	0.900359	16.000000	n/a	4	1.953125e-02	1.953125e-02
285.708470	0.900359	dec_choice	0.900359	16.000000	n/a	4	1.822917e-02	1.822917e-02
285.708470	0.900359	dec_social_accept	0.900359	16.000000	n/a	4	1.953125e-02	1.953125e-02
285.708470	0.900359	dec_accept	0.900359	16.000000	n/a	4	1.822917e-02	1.822917e-02
285.708470	0.900359	dec_social_accept_high	0.900359	16.000000	n/a	4	1.822917e-02	1.822917e-02
292.542330	1.299895	dec_nonsocial_choice	1.299895	32.000000	n/a	3	-1.367188e-01	-1.367188e-01
292.542330	1.299895	dec_choice	1.299895	32.000000	n/a	3	-1.354167e-01	-1.354167e-01
292.542330	1.299895	dec_nonsocial_accept	1.299895	32.000000	n/a	3	-1.367188e-01	-1.367188e-01
292.542330	1.299895	dec_accept	1.299895	32.000000	n/a	3	-1.354167e-01	-1.354167e-01
292.542330	1.299895	dec_nonsocial_accept_low	1.299895	32.000000	n/a	3	-1.380208e-01	-1.380208e-01
300.191380	1.117584	dec_social_choice	1.117584	32.000000	n/a	2	-1.679688e-01	-1.679688e-01
300.191380	1.117584	dec_choice	1.117584	32.000000	n/a	2	-1.692708e-01	-1.692708e-01
300.191380	1.117584	dec_social_accept	1.117584	32.000000	n/a	2	-1.679688e-01	-1.679688e-01
300.191380	1.117584	dec_accept	1.117584	32.000000	n/a	2	-1.692708e-01	-1.692708e-01
300.191380	1.117584	dec_social_accept_low	1.117584	32.000000	n/a	2	-1.692708e-01	-1.692708e-01
309.442000	1.433434	dec_social_choice	1.433434	32.000000	n/a	16	2.695312e-01	2.695312e-01
309.442000	1.433434	dec_choice	1.433434	32.000000	n/a	16	2.682292e-01	2.682292e-01
309.442000	1.433434	dec_social_accept	1.433434	32.000000	n/a	16	2.695312e-01	2.695312e-01
309.442000	1.433434	dec_accept	1.433434	32.000000	n/a	16	2.682292e-01	2.682292e-01
309.442000	1.433434	dec_social_accept_high	1.433434	32.000000	n/a	16	2.682292e-01	2.682292e-01
317.092830	1.315999	dec_nonsocial_choice	1.315999	32.000000	n/a	3	-1.367188e-01	-1.367188e-01
317.092830	1.315999	dec_choice	1.315999	32.000000	n/a	3	-1.354167e-01	-1.354167e-01
317.092830	1.315999	dec_nonsocial_accept	1.315999	32.000000	n/a	3	-1.367188e-01	-1.367188e-01
317.092830	1.315999	dec_accept	1.315999	32.000000	n/a	3	-1.354167e-01	-1.354167e-01
317.092830	1.315999	dec_nonsocial_accept_low	1.315999	32.000000	n/a	3	-1.380208e-01	-1.380208e-01
324.742740	1.433119	dec_nonsocial_choice	1.433119	16.000000	n/a	2	-1.054688e-01	-1.054688e-01
324.742740	1.433119	dec_choice	1.433119	16.000000	n/a	2	-1.041667e-01	-1.041667e-01
324.742740	1.433119	dec_nonsocial_accept	1.433119	16.000000	n/a	2	-1.054688e-01	-1.054688e-01
324.742740	1.433119	dec_accept	1.433119	16.000000	n/a	2	-1.041667e-01	-1.041667e-01
324.742740	1.433119	dec_nonsocial_accept_low	1.433119	16.000000	n/a	2	-1.067708e-01	-1.067708e-01
333.992300	1.483248	dec_nonsocial_choice	1.483248	16.000000	n/a	2	-1.054688e-01	-1.054688e-01
333.992300	1.483248	dec_choice	1.483248	16.000000	n/a	2	-1.041667e-01	-1.041667e-01
333.992300	1.483248	dec_nonsocial_accept	1.483248	16.000000	n/a	2	-1.054688e-01	-1.054688e-01
333.992300	1.483248	dec_accept	1.483248	16.000000	n/a	2	-1.041667e-01	-1.041667e-01
333.992300	1.483248	dec_nonsocial_low	1.483248	16.000000	n/a	2	-1.041667e-01	-1.041667e-01
333.992300	1.483248	dec_nonsocial_accept_low	1.483248	16.000000	n/a	2	-1.041667e-01	-1.041667e-01
341.641450	1.400780	dec_social_choice	1.400780	16.000000	n/a	4	1.953125e-02	1.953125e-02
341.641450	1.400780	dec_choice	1.400780	16.000000	n/a	4	1.822917e-02	1.822917e-02
341.641450	1.400780	dec_social_accept	1.400780	16.000000	n/a	4	1.953125e-02	1.953125e-02
341.641450	1.400780	dec_accept	1.400780	16.000000	n/a	4	1.822917e-02	1.822917e-02
341.641450	1.400780	dec_social_accept_high	1.400780	16.000000	n/a	4	1.822917e-02	1.822917e-02
348.475800	1.299666	dec_social_choice	1.299666	16.000000	n/a	8	2.695312e-01	2.695312e-01
348.475800	1.299666	dec_choice	1.299666	16.000000	n/a	8	2.682292e-01	2.682292e-01
348.475800	1.299666	dec_social_accept	1.299666	16.000000	n/a	8	2.695312e-01	2.695312e-01
348.475800	1.299666	dec_accept	1.299666	16.000000	n/a	8	2.682292e-01	2.682292e-01
348.475800	1.299666	dec_social_accept_high	1.299666	16.000000	n/a	8	2.682292e-01	2.682292e-01
357.725680	1.549821	dec_nonsocial_choice	1.549821	32.000000	n/a	3	-1.367188e-01	-1.367188e-01
357.725680	1.549821	dec_choice	1.549821	32.000000	n/a	3	-1.354167e-01	-1.354167e-01
357.725680	1.549821	dec_nonsocial_accept	1.549821	32.000000	n/a	3	-1.367188e-01	-1.367188e-01
357.725680	1.549821	dec_accept	1.549821	32.000000	n/a	3	-1.354167e-01	-1.354167e-01
357.725680	1.549821	dec_nonsocial_accept_low	1.549821	32.000000	n/a	3	-1.380208e-01	-1.380208e-01
365.375200	1.500236	dec_social_choice	1.500236	16.000000	n/a	4	1.953125e-02	1.953125e-02
365.375200	1.500236	dec_choice	1.500236	16.000000	n/a	4	1.822917e-02	1.822917e-02
365.375200	1.500236	dec_social_accept	1.500236	16.000000	n/a	4	1.953125e-02	1.953125e-02
365.375200	1.500236	dec_accept	1.500236	16.000000	n/a	4	1.822917e-02	1.822917e-02
365.375200	1.500236	dec_social_high	1.500236	16.000000	n/a	4	1.822917e-02	1.822917e-02
365.375200	1.500236	dec_social_accept_high	1.500236	16.000000	n/a	4	1.822917e-02	1.822917e-02
373.025270	1.599902	dec_nonsocial_choice	1.599902	32.000000	n/a	8	1.953125e-02	1.953125e-02
373.025270	1.599902	dec_choice	1.599902	32.000000	n/a	8	2.083333e-02	2.083333e-02
373.025270	1.599902	dec_nonsocial_accept	1.599902	32.000000	n/a	8	1.953125e-02	1.953125e-02
373.025270	1.599902	dec_accept	1.599902	32.000000	n/a	8	2.083333e-02	2.083333e-02
373.025270	1.599902	dec_nonsocial_high	1.599902	32.000000	n/a	8	2.083333e-02	2.083333e-02
373.025270	1.599902	dec_nonsocial_accept_high	1.599902	32.000000	n/a	8	2.083333e-02	2.083333e-02
