onset	duration	trial_type	response_time	Endowment	Endowment_pmod	Decision	Decision_pmod	Offer_pmod
4.506853	2	cue_nonsocial	n/a	32	9	n/a	n/a	n/a
4.506853	2	cue_nonsocial_high	n/a	32	8	n/a	n/a	n/a
15.446457	2	cue_social	n/a	16	-8	n/a	n/a	n/a
15.446457	2	cue_social_low	n/a	16	-7	n/a	n/a	n/a
23.023410	2	cue_nonsocial	n/a	32	9	n/a	n/a	n/a
23.023410	2	cue_nonsocial_high	n/a	32	8	n/a	n/a	n/a
29.868826	2	cue_nonsocial	n/a	32	9	n/a	n/a	n/a
29.868826	2	cue_nonsocial_high	n/a	32	8	n/a	n/a	n/a
36.689700	2	cue_nonsocial	n/a	32	9	n/a	n/a	n/a
36.689700	2	cue_nonsocial_high	n/a	32	8	n/a	n/a	n/a
44.331787	2	cue_nonsocial	n/a	16	-7	n/a	n/a	n/a
44.331787	2	cue_nonsocial_low	n/a	16	-8	n/a	n/a	n/a
51.990790	2	cue_nonsocial	n/a	16	-7	n/a	n/a	n/a
51.990790	2	cue_nonsocial_low	n/a	16	-8	n/a	n/a	n/a
58.890022	2	cue_social	n/a	32	8	n/a	n/a	n/a
58.890022	2	cue_social_high	n/a	32	9	n/a	n/a	n/a
65.656500	2	cue_nonsocial	n/a	32	9	n/a	n/a	n/a
65.656500	2	cue_nonsocial_high	n/a	32	8	n/a	n/a	n/a
72.616190	2	cue_social	n/a	16	-8	n/a	n/a	n/a
72.616190	2	cue_social_low	n/a	16	-7	n/a	n/a	n/a
83.356920	2	cue_nonsocial	n/a	16	-7	n/a	n/a	n/a
83.356920	2	cue_nonsocial_low	n/a	16	-8	n/a	n/a	n/a
91.006386	2	cue_nonsocial	n/a	16	-7	n/a	n/a	n/a
91.006386	2	cue_nonsocial_low	n/a	16	-8	n/a	n/a	n/a
97.918140	2	cue_social	n/a	16	-8	n/a	n/a	n/a
97.918140	2	cue_social_low	n/a	16	-7	n/a	n/a	n/a
104.672790	2	cue_nonsocial	n/a	16	-7	n/a	n/a	n/a
104.672790	2	cue_nonsocial_low	n/a	16	-8	n/a	n/a	n/a
112.419450	2	cue_social	n/a	32	8	n/a	n/a	n/a
112.419450	2	cue_social_high	n/a	32	9	n/a	n/a	n/a
119.249630	2	cue_social	n/a	16	-8	n/a	n/a	n/a
119.249630	2	cue_social_low	n/a	16	-7	n/a	n/a	n/a
126.062126	2	cue_social	n/a	32	8	n/a	n/a	n/a
126.062126	2	cue_social_high	n/a	32	9	n/a	n/a	n/a
133.705920	2	cue_social	n/a	32	8	n/a	n/a	n/a
133.705920	2	cue_social_high	n/a	32	9	n/a	n/a	n/a
140.473390	2	cue_nonsocial	n/a	32	9	n/a	n/a	n/a
140.473390	2	cue_nonsocial_high	n/a	32	8	n/a	n/a	n/a
147.378230	2	cue_social	n/a	32	8	n/a	n/a	n/a
147.378230	2	cue_social_high	n/a	32	9	n/a	n/a	n/a
154.139850	2	cue_nonsocial	n/a	16	-7	n/a	n/a	n/a
154.139850	2	cue_nonsocial_low	n/a	16	-8	n/a	n/a	n/a
161.037780	2	cue_social	n/a	32	8	n/a	n/a	n/a
161.037780	2	cue_social_high	n/a	32	9	n/a	n/a	n/a
168.687440	2	cue_social	n/a	32	8	n/a	n/a	n/a
168.687440	2	cue_social_high	n/a	32	9	n/a	n/a	n/a
176.273220	2	cue_nonsocial	n/a	32	9	n/a	n/a	n/a
176.273220	2	cue_nonsocial_high	n/a	32	8	n/a	n/a	n/a
183.171810	2	cue_social	n/a	16	-8	n/a	n/a	n/a
183.171810	2	cue_social_low	n/a	16	-7	n/a	n/a	n/a
192.441120	2	cue_social	n/a	32	8	n/a	n/a	n/a
192.441120	2	cue_social_high	n/a	32	9	n/a	n/a	n/a
199.189120	2	cue_nonsocial	n/a	16	-7	n/a	n/a	n/a
199.189120	2	cue_nonsocial_low	n/a	16	-8	n/a	n/a	n/a
206.088680	2	cue_social	n/a	32	8	n/a	n/a	n/a
206.088680	2	cue_social_high	n/a	32	9	n/a	n/a	n/a
213.750580	2	cue_social	n/a	16	-8	n/a	n/a	n/a
213.750580	2	cue_social_low	n/a	16	-7	n/a	n/a	n/a
222.923100	2	cue_nonsocial	n/a	16	-7	n/a	n/a	n/a
222.923100	2	cue_nonsocial_low	n/a	16	-8	n/a	n/a	n/a
235.406020	2	cue_nonsocial	n/a	16	-7	n/a	n/a	n/a
235.406020	2	cue_nonsocial_low	n/a	16	-8	n/a	n/a	n/a
242.239090	2	cue_nonsocial	n/a	16	-7	n/a	n/a	n/a
242.239090	2	cue_nonsocial_low	n/a	16	-8	n/a	n/a	n/a
249.962270	2	cue_social	n/a	16	-8	n/a	n/a	n/a
249.962270	2	cue_social_low	n/a	16	-7	n/a	n/a	n/a
256.861940	2	cue_social	n/a	16	-8	n/a	n/a	n/a
256.861940	2	cue_social_low	n/a	16	-7	n/a	n/a	n/a
263.630860	2	cue_social	n/a	32	8	n/a	n/a	n/a
263.630860	2	cue_social_high	n/a	32	9	n/a	n/a	n/a
274.422670	2	cue_nonsocial	n/a	16	-7	n/a	n/a	n/a
274.422670	2	cue_nonsocial_low	n/a	16	-8	n/a	n/a	n/a
283.737340	2	cue_social	n/a	16	-8	n/a	n/a	n/a
283.737340	2	cue_social_low	n/a	16	-7	n/a	n/a	n/a
292.999970	2	cue_social	n/a	16	-8	n/a	n/a	n/a
292.999970	2	cue_social_low	n/a	16	-7	n/a	n/a	n/a
300.706000	2	cue_social	n/a	16	-8	n/a	n/a	n/a
300.706000	2	cue_social_low	n/a	16	-7	n/a	n/a	n/a
307.422760	2	cue_nonsocial	n/a	32	9	n/a	n/a	n/a
307.422760	2	cue_nonsocial_high	n/a	32	8	n/a	n/a	n/a
314.255500	2	cue_nonsocial	n/a	16	-7	n/a	n/a	n/a
314.255500	2	cue_nonsocial_low	n/a	16	-8	n/a	n/a	n/a
321.146270	2	cue_social	n/a	16	-8	n/a	n/a	n/a
321.146270	2	cue_social_low	n/a	16	-7	n/a	n/a	n/a
328.738650	2	cue_nonsocial	n/a	16	-7	n/a	n/a	n/a
328.738650	2	cue_nonsocial_low	n/a	16	-8	n/a	n/a	n/a
335.572080	2	cue_nonsocial	n/a	32	9	n/a	n/a	n/a
335.572080	2	cue_nonsocial_high	n/a	32	8	n/a	n/a	n/a
344.889740	2	cue_social	n/a	32	8	n/a	n/a	n/a
344.889740	2	cue_social_high	n/a	32	9	n/a	n/a	n/a
352.489140	2	cue_nonsocial	n/a	32	9	n/a	n/a	n/a
352.489140	2	cue_nonsocial_high	n/a	32	8	n/a	n/a	n/a
361.738530	2	cue_nonsocial	n/a	32	9	n/a	n/a	n/a
361.738530	2	cue_nonsocial_high	n/a	32	8	n/a	n/a	n/a
368.662870	2	cue_social	n/a	32	8	n/a	n/a	n/a
368.662870	2	cue_social_high	n/a	32	9	n/a	n/a	n/a
6.512053	1.016537	dec_nonsocial_choice	1.016537	32.000000	n/a	0	0	-2.317708e-01
6.512053	1.016537	dec_choice	1.016537	32.000000	n/a	0	0	-2.291667e-01
6.512053	1.016537	dec_nonsocial_reject	1.016537	32.000000	n/a	0	0	5.208333e-03
6.512053	1.016537	dec_reject	1.016537	32.000000	n/a	0	0	1.041667e-02
6.512053	1.016537	dec_nonsocial_reject_low	1.016537	32.000000	n/a	3	0	-9.375000e-02
17.378683	1.033193	dec_social_choice	1.033193	16.000000	n/a	0	0	-2.317708e-01
17.378683	1.033193	dec_choice	1.033193	16.000000	n/a	0	0	-2.343750e-01
17.378683	1.033193	dec_social_reject	1.033193	16.000000	n/a	0	0	-2.604167e-02
17.378683	1.033193	dec_reject	1.033193	16.000000	n/a	0	0	-3.125000e-02
17.378683	1.033193	dec_social_reject_low	1.033193	16.000000	n/a	1	-1.718750e-01	-2.343750e-01
25.028616	0.933872	dec_nonsocial_choice	0.933872	32.000000	n/a	0	0	-2.317708e-01
25.028616	0.933872	dec_choice	0.933872	32.000000	n/a	0	0	-2.291667e-01
25.028616	0.933872	dec_nonsocial_reject	0.933872	32.000000	n/a	0	0	5.208333e-03
25.028616	0.933872	dec_reject	0.933872	32.000000	n/a	0	0	1.041667e-02
25.028616	0.933872	dec_nonsocial_reject_low	0.933872	32.000000	n/a	3	0	-9.375000e-02
31.862448	0.966356	dec_nonsocial_choice	0.966356	32.000000	n/a	16	2.682292e-01	2.682292e-01
31.862448	0.966356	dec_choice	0.966356	32.000000	n/a	16	2.708333e-01	2.708333e-01
31.862448	0.966356	dec_nonsocial_accept	0.966356	32.000000	n/a	16	1.250000e-01	1.250000e-01
31.862448	0.966356	dec_accept	0.966356	32.000000	n/a	16	1.250000e-01	1.250000e-01
31.862448	0.966356	dec_nonsocial_accept_high	0.966356	32.000000	n/a	16	1.250000e-01	1.250000e-01
38.695580	1.116127	dec_nonsocial_choice	1.116127	32.000000	n/a	0	0	-2.317708e-01
38.695580	1.116127	dec_choice	1.116127	32.000000	n/a	0	0	-2.291667e-01
38.695580	1.116127	dec_nonsocial_reject	1.116127	32.000000	n/a	0	0	5.208333e-03
38.695580	1.116127	dec_reject	1.116127	32.000000	n/a	0	0	1.041667e-02
38.695580	1.116127	dec_nonsocial_low	1.116127	32.000000	n/a	0	-2.291667e-01	-2.291667e-01
38.695580	1.116127	dec_nonsocial_reject_low	1.116127	32.000000	n/a	3	1.041667e-02	-8.333333e-02
46.345192	1.233879	dec_nonsocial_choice	1.233879	16.000000	n/a	0	0	-2.317708e-01
46.345192	1.233879	dec_choice	1.233879	16.000000	n/a	0	0	-2.291667e-01
46.345192	1.233879	dec_nonsocial_reject	1.233879	16.000000	n/a	0	0	3.645833e-02
46.345192	1.233879	dec_reject	1.233879	16.000000	n/a	0	0	4.166667e-02
46.345192	1.233879	dec_nonsocial_low	1.233879	16.000000	n/a	0	-2.291667e-01	-2.291667e-01
46.345192	1.233879	dec_nonsocial_reject_low	1.233879	16.000000	n/a	2	4.166667e-02	-8.333333e-02
53.995583	0.933884	dec_nonsocial_choice	0.933884	16.000000	n/a	4	1.822917e-02	1.822917e-02
53.995583	0.933884	dec_choice	0.933884	16.000000	n/a	4	2.083333e-02	2.083333e-02
53.995583	0.933884	dec_nonsocial_accept	0.933884	16.000000	n/a	4	-1.250000e-01	-1.250000e-01
53.995583	0.933884	dec_accept	0.933884	16.000000	n/a	4	-1.250000e-01	-1.250000e-01
53.995583	0.933884	dec_nonsocial_high	0.933884	16.000000	n/a	4	2.083333e-02	2.083333e-02
53.995583	0.933884	dec_nonsocial_accept_high	0.933884	16.000000	n/a	4	-1.250000e-01	-1.250000e-01
60.829746	1.065801	dec_social_choice	1.065801	32.000000	n/a	8	1.822917e-02	1.822917e-02
60.829746	1.065801	dec_choice	1.065801	32.000000	n/a	8	1.562500e-02	1.562500e-02
60.829746	1.065801	dec_social_accept	1.065801	32.000000	n/a	8	-1.250000e-01	-1.250000e-01
60.829746	1.065801	dec_accept	1.065801	32.000000	n/a	8	-1.250000e-01	-1.250000e-01
60.829746	1.065801	dec_social_accept_high	1.065801	32.000000	n/a	8	1.562500e-02	1.562500e-02
67.662620	0.799799	dec_nonsocial_choice	0.799799	32.000000	n/a	8	1.822917e-02	1.822917e-02
67.662620	0.799799	dec_choice	0.799799	32.000000	n/a	8	2.083333e-02	2.083333e-02
67.662620	0.799799	dec_nonsocial_accept	0.799799	32.000000	n/a	8	-1.250000e-01	-1.250000e-01
67.662620	0.799799	dec_accept	0.799799	32.000000	n/a	8	-1.250000e-01	-1.250000e-01
67.662620	0.799799	dec_nonsocial_accept_high	0.799799	32.000000	n/a	8	-1.250000e-01	-1.250000e-01
74.495540	0.850078	dec_social_choice	0.850078	16.000000	n/a	8	2.682292e-01	2.682292e-01
74.495540	0.850078	dec_choice	0.850078	16.000000	n/a	8	2.656250e-01	2.656250e-01
74.495540	0.850078	dec_social_accept	0.850078	16.000000	n/a	8	1.250000e-01	1.250000e-01
74.495540	0.850078	dec_accept	0.850078	16.000000	n/a	8	1.250000e-01	1.250000e-01
74.495540	0.850078	dec_social_high	0.850078	16.000000	n/a	8	2.656250e-01	2.656250e-01
74.495540	0.850078	dec_social_accept_high	0.850078	16.000000	n/a	8	2.656250e-01	2.656250e-01
85.361860	1.233500	dec_nonsocial_choice	1.233500	16.000000	n/a	4	1.822917e-02	1.822917e-02
85.361860	1.233500	dec_choice	1.233500	16.000000	n/a	4	2.083333e-02	2.083333e-02
85.361860	1.233500	dec_nonsocial_accept	1.233500	16.000000	n/a	4	-1.250000e-01	-1.250000e-01
85.361860	1.233500	dec_accept	1.233500	16.000000	n/a	4	-1.250000e-01	-1.250000e-01
85.361860	1.233500	dec_nonsocial_high	1.233500	16.000000	n/a	4	2.083333e-02	2.083333e-02
85.361860	1.233500	dec_nonsocial_accept_high	1.233500	16.000000	n/a	4	-1.250000e-01	-1.250000e-01
93.012380	1.449688	dec_nonsocial_choice	1.449688	16.000000	n/a	0	0	-2.317708e-01
93.012380	1.449688	dec_choice	1.449688	16.000000	n/a	0	0	-2.291667e-01
93.012380	1.449688	dec_nonsocial_reject	1.449688	16.000000	n/a	0	0	-2.604167e-02
93.012380	1.449688	dec_reject	1.449688	16.000000	n/a	0	0	-2.083333e-02
93.012380	1.449688	dec_nonsocial_low	1.449688	16.000000	n/a	0	-2.291667e-01	-2.291667e-01
93.012380	1.449688	dec_nonsocial_reject_low	1.449688	16.000000	n/a	1	-2.083333e-02	-8.333333e-02
99.845200	0.900267	dec_social_choice	0.900267	16.000000	n/a	0	0	-2.317708e-01
99.845200	0.900267	dec_choice	0.900267	16.000000	n/a	0	0	-2.343750e-01
99.845200	0.900267	dec_social_reject	0.900267	16.000000	n/a	0	0	3.645833e-02
99.845200	0.900267	dec_reject	0.900267	16.000000	n/a	0	0	3.125000e-02
99.845200	0.900267	dec_social_low	0.900267	16.000000	n/a	0	-2.343750e-01	-2.343750e-01
99.845200	0.900267	dec_social_reject_low	0.900267	16.000000	n/a	2	-1.093750e-01	-2.343750e-01
106.679504	0.915477	dec_nonsocial_choice	0.915477	16.000000	n/a	0	0	-2.317708e-01
106.679504	0.915477	dec_choice	0.915477	16.000000	n/a	0	0	-2.291667e-01
106.679504	0.915477	dec_nonsocial_reject	0.915477	16.000000	n/a	0	0	-2.604167e-02
106.679504	0.915477	dec_reject	0.915477	16.000000	n/a	0	0	-2.083333e-02
106.679504	0.915477	dec_nonsocial_low	0.915477	16.000000	n/a	0	-2.291667e-01	-2.291667e-01
106.679504	0.915477	dec_nonsocial_reject_low	0.915477	16.000000	n/a	1	-2.083333e-02	-8.333333e-02
114.328530	1.084365	dec_social_choice	1.084365	32.000000	n/a	8	1.822917e-02	1.822917e-02
114.328530	1.084365	dec_choice	1.084365	32.000000	n/a	8	1.562500e-02	1.562500e-02
114.328530	1.084365	dec_social_accept	1.084365	32.000000	n/a	8	-1.250000e-01	-1.250000e-01
114.328530	1.084365	dec_accept	1.084365	32.000000	n/a	8	-1.250000e-01	-1.250000e-01
114.328530	1.084365	dec_social_accept_high	1.084365	32.000000	n/a	8	1.562500e-02	1.562500e-02
121.162030	1.516071	dec_social_choice	1.516071	16.000000	n/a	0	0	-2.317708e-01
121.162030	1.516071	dec_choice	1.516071	16.000000	n/a	0	0	-2.343750e-01
121.162030	1.516071	dec_social_reject	1.516071	16.000000	n/a	0	0	3.645833e-02
121.162030	1.516071	dec_reject	1.516071	16.000000	n/a	0	0	3.125000e-02
121.162030	1.516071	dec_social_low	1.516071	16.000000	n/a	0	-2.343750e-01	-2.343750e-01
121.162030	1.516071	dec_social_reject_low	1.516071	16.000000	n/a	2	-1.093750e-01	-2.343750e-01
127.994270	1.017711	dec_social_choice	1.017711	32.000000	n/a	8	1.822917e-02	1.822917e-02
127.994270	1.017711	dec_choice	1.017711	32.000000	n/a	8	1.562500e-02	1.562500e-02
127.994270	1.017711	dec_social_accept	1.017711	32.000000	n/a	8	-1.250000e-01	-1.250000e-01
127.994270	1.017711	dec_accept	1.017711	32.000000	n/a	8	-1.250000e-01	-1.250000e-01
127.994270	1.017711	dec_social_high	1.017711	32.000000	n/a	8	1.562500e-02	1.562500e-02
127.994270	1.017711	dec_social_accept_high	1.017711	32.000000	n/a	8	1.562500e-02	1.562500e-02
135.644470	1.001070	dec_social_choice	1.001070	32.000000	n/a	16	2.682292e-01	2.682292e-01
135.644470	1.001070	dec_choice	1.001070	32.000000	n/a	16	2.656250e-01	2.656250e-01
135.644470	1.001070	dec_social_accept	1.001070	32.000000	n/a	16	1.250000e-01	1.250000e-01
135.644470	1.001070	dec_accept	1.001070	32.000000	n/a	16	1.250000e-01	1.250000e-01
135.644470	1.001070	dec_social_accept_high	1.001070	32.000000	n/a	16	2.656250e-01	2.656250e-01
142.478650	1.183306	dec_nonsocial_choice	1.183306	32.000000	n/a	0	0	-2.317708e-01
142.478650	1.183306	dec_choice	1.183306	32.000000	n/a	0	0	-2.291667e-01
142.478650	1.183306	dec_nonsocial_reject	1.183306	32.000000	n/a	0	0	5.208333e-03
142.478650	1.183306	dec_reject	1.183306	32.000000	n/a	0	0	1.041667e-02
142.478650	1.183306	dec_nonsocial_low	1.183306	32.000000	n/a	0	-2.291667e-01	-2.291667e-01
142.478650	1.183306	dec_nonsocial_reject_low	1.183306	32.000000	n/a	3	1.041667e-02	-8.333333e-02
149.310940	1.617473	dec_social_choice	1.617473	32.000000	n/a	8	1.822917e-02	1.822917e-02
149.310940	1.617473	dec_choice	1.617473	32.000000	n/a	8	1.562500e-02	1.562500e-02
149.310940	1.617473	dec_social_accept	1.617473	32.000000	n/a	8	-1.250000e-01	-1.250000e-01
149.310940	1.617473	dec_accept	1.617473	32.000000	n/a	8	-1.250000e-01	-1.250000e-01
149.310940	1.617473	dec_social_high	1.617473	32.000000	n/a	8	1.562500e-02	1.562500e-02
149.310940	1.617473	dec_social_accept_high	1.617473	32.000000	n/a	8	1.562500e-02	1.562500e-02
156.146440	1.181219	dec_nonsocial_choice	1.181219	16.000000	n/a	0	0	-2.317708e-01
156.146440	1.181219	dec_choice	1.181219	16.000000	n/a	0	0	-2.291667e-01
156.146440	1.181219	dec_nonsocial_reject	1.181219	16.000000	n/a	0	0	-2.604167e-02
156.146440	1.181219	dec_reject	1.181219	16.000000	n/a	0	0	-2.083333e-02
156.146440	1.181219	dec_nonsocial_low	1.181219	16.000000	n/a	0	-2.291667e-01	-2.291667e-01
156.146440	1.181219	dec_nonsocial_reject_low	1.181219	16.000000	n/a	1	-2.083333e-02	-8.333333e-02
162.979170	1.049288	dec_social_choice	1.049288	32.000000	n/a	0	0	-2.317708e-01
162.979170	1.049288	dec_choice	1.049288	32.000000	n/a	0	0	-2.343750e-01
162.979170	1.049288	dec_social_reject	1.049288	32.000000	n/a	0	0	-2.604167e-02
162.979170	1.049288	dec_reject	1.049288	32.000000	n/a	0	0	-3.125000e-02
162.979170	1.049288	dec_social_low	1.049288	32.000000	n/a	0	-2.343750e-01	-2.343750e-01
162.979170	1.049288	dec_social_reject_low	1.049288	32.000000	n/a	2	-1.718750e-01	-2.343750e-01
170.629260	0.965433	dec_social_choice	0.965433	32.000000	n/a	0	0	-2.317708e-01
170.629260	0.965433	dec_choice	0.965433	32.000000	n/a	0	0	-2.343750e-01
170.629260	0.965433	dec_social_reject	0.965433	32.000000	n/a	0	0	-2.604167e-02
170.629260	0.965433	dec_reject	0.965433	32.000000	n/a	0	0	-3.125000e-02
170.629260	0.965433	dec_social_low	0.965433	32.000000	n/a	0	-2.343750e-01	-2.343750e-01
170.629260	0.965433	dec_social_reject_low	0.965433	32.000000	n/a	2	-1.718750e-01	-2.343750e-01
178.278440	1.066802	dec_nonsocial_choice	1.066802	32.000000	n/a	8	1.822917e-02	1.822917e-02
178.278440	1.066802	dec_choice	1.066802	32.000000	n/a	8	2.083333e-02	2.083333e-02
178.278440	1.066802	dec_nonsocial_accept	1.066802	32.000000	n/a	8	-1.250000e-01	-1.250000e-01
178.278440	1.066802	dec_accept	1.066802	32.000000	n/a	8	-1.250000e-01	-1.250000e-01
178.278440	1.066802	dec_nonsocial_high	1.066802	32.000000	n/a	8	2.083333e-02	2.083333e-02
178.278440	1.066802	dec_nonsocial_accept_high	1.066802	32.000000	n/a	8	-1.250000e-01	-1.250000e-01
185.110950	1.350960	dec_social_choice	1.350960	16.000000	n/a	0	0	-2.317708e-01
185.110950	1.350960	dec_choice	1.350960	16.000000	n/a	0	0	-2.343750e-01
185.110950	1.350960	dec_social_reject	1.350960	16.000000	n/a	0	0	-2.604167e-02
185.110950	1.350960	dec_reject	1.350960	16.000000	n/a	0	0	-3.125000e-02
185.110950	1.350960	dec_social_reject_low	1.350960	16.000000	n/a	1	-1.718750e-01	-2.343750e-01
194.361340	1.267411	dec_social_choice	1.267411	32.000000	n/a	0	0	-2.317708e-01
194.361340	1.267411	dec_choice	1.267411	32.000000	n/a	0	0	-2.343750e-01
194.361340	1.267411	dec_social_reject	1.267411	32.000000	n/a	0	0	-2.604167e-02
194.361340	1.267411	dec_reject	1.267411	32.000000	n/a	0	0	-3.125000e-02
194.361340	1.267411	dec_social_low	1.267411	32.000000	n/a	0	-2.343750e-01	-2.343750e-01
194.361340	1.267411	dec_social_reject_low	1.267411	32.000000	n/a	2	-1.718750e-01	-2.343750e-01
201.195140	1.033183	dec_nonsocial_choice	1.033183	16.000000	n/a	0	0	-2.317708e-01
201.195140	1.033183	dec_choice	1.033183	16.000000	n/a	0	0	-2.291667e-01
201.195140	1.033183	dec_nonsocial_reject	1.033183	16.000000	n/a	0	0	-2.604167e-02
201.195140	1.033183	dec_reject	1.033183	16.000000	n/a	0	0	-2.083333e-02
201.195140	1.033183	dec_nonsocial_low	1.033183	16.000000	n/a	0	-2.291667e-01	-2.291667e-01
201.195140	1.033183	dec_nonsocial_reject_low	1.033183	16.000000	n/a	1	-2.083333e-02	-8.333333e-02
208.028320	1.066278	dec_social_choice	1.066278	32.000000	n/a	16	2.682292e-01	2.682292e-01
208.028320	1.066278	dec_choice	1.066278	32.000000	n/a	16	2.656250e-01	2.656250e-01
208.028320	1.066278	dec_social_accept	1.066278	32.000000	n/a	16	1.250000e-01	1.250000e-01
208.028320	1.066278	dec_accept	1.066278	32.000000	n/a	16	1.250000e-01	1.250000e-01
208.028320	1.066278	dec_social_accept_high	1.066278	32.000000	n/a	16	2.656250e-01	2.656250e-01
215.677440	1.517333	dec_social_choice	1.517333	16.000000	n/a	0	0	-2.317708e-01
215.677440	1.517333	dec_choice	1.517333	16.000000	n/a	0	0	-2.343750e-01
215.677440	1.517333	dec_social_reject	1.517333	16.000000	n/a	0	0	3.645833e-02
215.677440	1.517333	dec_reject	1.517333	16.000000	n/a	0	0	3.125000e-02
215.677440	1.517333	dec_social_reject_low	1.517333	16.000000	n/a	2	-1.093750e-01	-2.343750e-01
224.928310	1.050027	dec_nonsocial_choice	1.050027	16.000000	n/a	0	0	-2.317708e-01
224.928310	1.050027	dec_choice	1.050027	16.000000	n/a	0	0	-2.291667e-01
224.928310	1.050027	dec_nonsocial_reject	1.050027	16.000000	n/a	0	0	-2.604167e-02
224.928310	1.050027	dec_reject	1.050027	16.000000	n/a	0	0	-2.083333e-02
224.928310	1.050027	dec_nonsocial_low	1.050027	16.000000	n/a	0	-2.291667e-01	-2.291667e-01
224.928310	1.050027	dec_nonsocial_reject_low	1.050027	16.000000	n/a	1	-2.083333e-02	-8.333333e-02
237.412030	1.116163	dec_nonsocial_choice	1.116163	16.000000	n/a	0	0	-2.317708e-01
237.412030	1.116163	dec_choice	1.116163	16.000000	n/a	0	0	-2.291667e-01
237.412030	1.116163	dec_nonsocial_reject	1.116163	16.000000	n/a	0	0	3.645833e-02
237.412030	1.116163	dec_reject	1.116163	16.000000	n/a	0	0	4.166667e-02
237.412030	1.116163	dec_nonsocial_reject_low	1.116163	16.000000	n/a	2	3.125000e-02	-9.375000e-02
244.244320	1.166762	dec_nonsocial_choice	1.166762	16.000000	n/a	8	2.682292e-01	2.682292e-01
244.244320	1.166762	dec_choice	1.166762	16.000000	n/a	8	2.708333e-01	2.708333e-01
244.244320	1.166762	dec_nonsocial_accept	1.166762	16.000000	n/a	8	1.250000e-01	1.250000e-01
244.244320	1.166762	dec_accept	1.166762	16.000000	n/a	8	1.250000e-01	1.250000e-01
244.244320	1.166762	dec_nonsocial_high	1.166762	16.000000	n/a	8	2.708333e-01	2.708333e-01
244.244320	1.166762	dec_nonsocial_accept_high	1.166762	16.000000	n/a	8	1.250000e-01	1.250000e-01
251.893810	1.151080	dec_social_choice	1.151080	16.000000	n/a	0	0	-2.317708e-01
251.893810	1.151080	dec_choice	1.151080	16.000000	n/a	0	0	-2.343750e-01
251.893810	1.151080	dec_social_reject	1.151080	16.000000	n/a	0	0	3.645833e-02
251.893810	1.151080	dec_reject	1.151080	16.000000	n/a	0	0	3.125000e-02
251.893810	1.151080	dec_social_low	1.151080	16.000000	n/a	0	-2.343750e-01	-2.343750e-01
251.893810	1.151080	dec_social_reject_low	1.151080	16.000000	n/a	2	-1.093750e-01	-2.343750e-01
258.727360	1.000765	dec_social_choice	1.000765	16.000000	n/a	8	2.682292e-01	2.682292e-01
258.727360	1.000765	dec_choice	1.000765	16.000000	n/a	8	2.656250e-01	2.656250e-01
258.727360	1.000765	dec_social_accept	1.000765	16.000000	n/a	8	1.250000e-01	1.250000e-01
258.727360	1.000765	dec_accept	1.000765	16.000000	n/a	8	1.250000e-01	1.250000e-01
258.727360	1.000765	dec_social_high	1.000765	16.000000	n/a	8	2.656250e-01	2.656250e-01
258.727360	1.000765	dec_social_accept_high	1.000765	16.000000	n/a	8	2.656250e-01	2.656250e-01
265.561430	0.850111	dec_social_choice	0.850111	32.000000	n/a	16	2.682292e-01	2.682292e-01
265.561430	0.850111	dec_choice	0.850111	32.000000	n/a	16	2.656250e-01	2.656250e-01
265.561430	0.850111	dec_social_accept	0.850111	32.000000	n/a	16	1.250000e-01	1.250000e-01
265.561430	0.850111	dec_accept	0.850111	32.000000	n/a	16	1.250000e-01	1.250000e-01
265.561430	0.850111	dec_social_accept_high	0.850111	32.000000	n/a	16	2.656250e-01	2.656250e-01
276.427370	0.950829	dec_nonsocial_choice	0.950829	16.000000	n/a	4	1.822917e-02	1.822917e-02
276.427370	0.950829	dec_choice	0.950829	16.000000	n/a	4	2.083333e-02	2.083333e-02
276.427370	0.950829	dec_nonsocial_accept	0.950829	16.000000	n/a	4	-1.250000e-01	-1.250000e-01
276.427370	0.950829	dec_accept	0.950829	16.000000	n/a	4	-1.250000e-01	-1.250000e-01
276.427370	0.950829	dec_nonsocial_accept_high	0.950829	16.000000	n/a	4	-1.250000e-01	-1.250000e-01
285.678100	1.233163	dec_social_choice	1.233163	16.000000	n/a	0	0	-2.317708e-01
285.678100	1.233163	dec_choice	1.233163	16.000000	n/a	0	0	-2.343750e-01
285.678100	1.233163	dec_social_reject	1.233163	16.000000	n/a	0	0	-2.604167e-02
285.678100	1.233163	dec_reject	1.233163	16.000000	n/a	0	0	-3.125000e-02
285.678100	1.233163	dec_social_reject_low	1.233163	16.000000	n/a	1	-1.718750e-01	-2.343750e-01
294.945280	1.249360	dec_social_choice	1.249360	16.000000	n/a	0	0	-2.317708e-01
294.945280	1.249360	dec_choice	1.249360	16.000000	n/a	0	0	-2.343750e-01
294.945280	1.249360	dec_social_reject	1.249360	16.000000	n/a	0	0	3.645833e-02
294.945280	1.249360	dec_reject	1.249360	16.000000	n/a	0	0	3.125000e-02
294.945280	1.249360	dec_social_reject_low	1.249360	16.000000	n/a	2	-1.093750e-01	-2.343750e-01
302.594360	1.083268	dec_social_choice	1.083268	16.000000	n/a	0	0	-2.317708e-01
302.594360	1.083268	dec_choice	1.083268	16.000000	n/a	0	0	-2.343750e-01
302.594360	1.083268	dec_social_reject	1.083268	16.000000	n/a	0	0	3.645833e-02
302.594360	1.083268	dec_reject	1.083268	16.000000	n/a	0	0	3.125000e-02
302.594360	1.083268	dec_social_low	1.083268	16.000000	n/a	0	-2.343750e-01	-2.343750e-01
302.594360	1.083268	dec_social_reject_low	1.083268	16.000000	n/a	2	-1.093750e-01	-2.343750e-01
309.427800	0.866649	dec_nonsocial_choice	0.866649	32.000000	n/a	16	2.682292e-01	2.682292e-01
309.427800	0.866649	dec_choice	0.866649	32.000000	n/a	16	2.708333e-01	2.708333e-01
309.427800	0.866649	dec_nonsocial_accept	0.866649	32.000000	n/a	16	1.250000e-01	1.250000e-01
309.427800	0.866649	dec_accept	0.866649	32.000000	n/a	16	1.250000e-01	1.250000e-01
309.427800	0.866649	dec_nonsocial_accept_high	0.866649	32.000000	n/a	16	1.250000e-01	1.250000e-01
316.261840	0.899535	dec_nonsocial_choice	0.899535	16.000000	n/a	8	2.682292e-01	2.682292e-01
316.261840	0.899535	dec_choice	0.899535	16.000000	n/a	8	2.708333e-01	2.708333e-01
316.261840	0.899535	dec_nonsocial_accept	0.899535	16.000000	n/a	8	1.250000e-01	1.250000e-01
316.261840	0.899535	dec_accept	0.899535	16.000000	n/a	8	1.250000e-01	1.250000e-01
316.261840	0.899535	dec_nonsocial_high	0.899535	16.000000	n/a	8	2.708333e-01	2.708333e-01
316.261840	0.899535	dec_nonsocial_accept_high	0.899535	16.000000	n/a	8	1.250000e-01	1.250000e-01
323.095000	1.033264	dec_social_choice	1.033264	16.000000	n/a	4	1.822917e-02	1.822917e-02
323.095000	1.033264	dec_choice	1.033264	16.000000	n/a	4	1.562500e-02	1.562500e-02
323.095000	1.033264	dec_social_accept	1.033264	16.000000	n/a	4	-1.250000e-01	-1.250000e-01
323.095000	1.033264	dec_accept	1.033264	16.000000	n/a	4	-1.250000e-01	-1.250000e-01
323.095000	1.033264	dec_social_high	1.033264	16.000000	n/a	4	1.562500e-02	1.562500e-02
323.095000	1.033264	dec_social_accept_high	1.033264	16.000000	n/a	4	1.562500e-02	1.562500e-02
330.745270	1.065534	dec_nonsocial_choice	1.065534	16.000000	n/a	0	0	-2.317708e-01
330.745270	1.065534	dec_choice	1.065534	16.000000	n/a	0	0	-2.291667e-01
330.745270	1.065534	dec_nonsocial_reject	1.065534	16.000000	n/a	0	0	-2.604167e-02
330.745270	1.065534	dec_reject	1.065534	16.000000	n/a	0	0	-2.083333e-02
330.745270	1.065534	dec_nonsocial_low	1.065534	16.000000	n/a	0	-2.291667e-01	-2.291667e-01
330.745270	1.065534	dec_nonsocial_reject_low	1.065534	16.000000	n/a	1	-2.083333e-02	-8.333333e-02
337.577270	0.883860	dec_nonsocial_choice	0.883860	32.000000	n/a	16	2.682292e-01	2.682292e-01
337.577270	0.883860	dec_choice	0.883860	32.000000	n/a	16	2.708333e-01	2.708333e-01
337.577270	0.883860	dec_nonsocial_accept	0.883860	32.000000	n/a	16	1.250000e-01	1.250000e-01
337.577270	0.883860	dec_accept	0.883860	32.000000	n/a	16	1.250000e-01	1.250000e-01
337.577270	0.883860	dec_nonsocial_high	0.883860	32.000000	n/a	16	2.708333e-01	2.708333e-01
337.577270	0.883860	dec_nonsocial_accept_high	0.883860	32.000000	n/a	16	1.250000e-01	1.250000e-01
346.844420	0.883487	dec_social_choice	0.883487	32.000000	n/a	16	2.682292e-01	2.682292e-01
346.844420	0.883487	dec_choice	0.883487	32.000000	n/a	16	2.656250e-01	2.656250e-01
346.844420	0.883487	dec_social_accept	0.883487	32.000000	n/a	16	1.250000e-01	1.250000e-01
346.844420	0.883487	dec_accept	0.883487	32.000000	n/a	16	1.250000e-01	1.250000e-01
346.844420	0.883487	dec_social_high	0.883487	32.000000	n/a	16	2.656250e-01	2.656250e-01
346.844420	0.883487	dec_social_accept_high	0.883487	32.000000	n/a	16	2.656250e-01	2.656250e-01
354.494200	1.200238	dec_nonsocial_choice	1.200238	32.000000	n/a	8	1.822917e-02	1.822917e-02
354.494200	1.200238	dec_choice	1.200238	32.000000	n/a	8	2.083333e-02	2.083333e-02
354.494200	1.200238	dec_nonsocial_accept	1.200238	32.000000	n/a	8	-1.250000e-01	-1.250000e-01
354.494200	1.200238	dec_accept	1.200238	32.000000	n/a	8	-1.250000e-01	-1.250000e-01
354.494200	1.200238	dec_nonsocial_accept_high	1.200238	32.000000	n/a	8	-1.250000e-01	-1.250000e-01
363.744700	0.883325	dec_nonsocial_choice	0.883325	32.000000	n/a	16	2.682292e-01	2.682292e-01
363.744700	0.883325	dec_choice	0.883325	32.000000	n/a	16	2.708333e-01	2.708333e-01
363.744700	0.883325	dec_nonsocial_accept	0.883325	32.000000	n/a	16	1.250000e-01	1.250000e-01
363.744700	0.883325	dec_accept	0.883325	32.000000	n/a	16	1.250000e-01	1.250000e-01
363.744700	0.883325	dec_nonsocial_high	0.883325	32.000000	n/a	16	2.708333e-01	2.708333e-01
363.744700	0.883325	dec_nonsocial_accept_high	0.883325	32.000000	n/a	16	1.250000e-01	1.250000e-01
370.577820	1.066898	dec_social_choice	1.066898	32.000000	n/a	8	1.822917e-02	1.822917e-02
370.577820	1.066898	dec_choice	1.066898	32.000000	n/a	8	1.562500e-02	1.562500e-02
370.577820	1.066898	dec_social_accept	1.066898	32.000000	n/a	8	-1.250000e-01	-1.250000e-01
370.577820	1.066898	dec_accept	1.066898	32.000000	n/a	8	-1.250000e-01	-1.250000e-01
370.577820	1.066898	dec_social_accept_high	1.066898	32.000000	n/a	8	1.562500e-02	1.562500e-02
