onset	duration	trial_type	response_time	Endowment	Endowment_pmod	Decision	Decision_pmod	Offer_pmod
4.511445	2	cue_nonsocial	n/a	16	-9	n/a	n/a	n/a
4.511445	2	cue_nonsocial_low	n/a	16	-9	n/a	n/a	n/a
11.460697	2	cue_social	n/a	16	-9	n/a	n/a	n/a
11.460697	2	cue_social_low	n/a	16	-9	n/a	n/a	n/a
18.209055	2	cue_social	n/a	16	-9	n/a	n/a	n/a
18.209055	2	cue_social_low	n/a	16	-9	n/a	n/a	n/a
25.906520	2	cue_social	n/a	16	-9	n/a	n/a	n/a
25.906520	2	cue_social_low	n/a	16	-9	n/a	n/a	n/a
33.462210	2	cue_nonsocial	n/a	32	7	n/a	n/a	n/a
33.462210	2	cue_nonsocial_high	n/a	32	7	n/a	n/a	n/a
40.293743	2	cue_nonsocial	n/a	32	7	n/a	n/a	n/a
40.293743	2	cue_nonsocial_high	n/a	32	7	n/a	n/a	n/a
49.544390	2	cue_nonsocial	n/a	32	7	n/a	n/a	n/a
49.544390	2	cue_nonsocial_high	n/a	32	7	n/a	n/a	n/a
58.811306	2	cue_nonsocial	n/a	32	7	n/a	n/a	n/a
58.811306	2	cue_nonsocial_high	n/a	32	7	n/a	n/a	n/a
65.659996	2	cue_social	n/a	16	-9	n/a	n/a	n/a
65.659996	2	cue_social_low	n/a	16	-9	n/a	n/a	n/a
72.477060	2	cue_nonsocial	n/a	16	-9	n/a	n/a	n/a
72.477060	2	cue_nonsocial_low	n/a	16	-9	n/a	n/a	n/a
80.229010	2	cue_social	n/a	16	-9	n/a	n/a	n/a
80.229010	2	cue_social_low	n/a	16	-9	n/a	n/a	n/a
86.944440	2	cue_nonsocial	n/a	32	7	n/a	n/a	n/a
86.944440	2	cue_nonsocial_high	n/a	32	7	n/a	n/a	n/a
99.533770	2	cue_social	n/a	32	7	n/a	n/a	n/a
99.533770	2	cue_social_high	n/a	32	7	n/a	n/a	n/a
106.384290	2	cue_social	n/a	32	7	n/a	n/a	n/a
106.384290	2	cue_social_high	n/a	32	7	n/a	n/a	n/a
113.094560	2	cue_nonsocial	n/a	32	7	n/a	n/a	n/a
113.094560	2	cue_nonsocial_high	n/a	32	7	n/a	n/a	n/a
119.927690	2	cue_nonsocial	n/a	16	-9	n/a	n/a	n/a
119.927690	2	cue_nonsocial_low	n/a	16	-9	n/a	n/a	n/a
126.860990	2	cue_social	n/a	32	7	n/a	n/a	n/a
126.860990	2	cue_social_high	n/a	32	7	n/a	n/a	n/a
133.600480	2	cue_social	n/a	32	7	n/a	n/a	n/a
133.600480	2	cue_social_high	n/a	32	7	n/a	n/a	n/a
144.583900	2	cue_social	n/a	16	-9	n/a	n/a	n/a
144.583900	2	cue_social_low	n/a	16	-9	n/a	n/a	n/a
153.711010	2	cue_nonsocial	n/a	32	7	n/a	n/a	n/a
153.711010	2	cue_nonsocial_high	n/a	32	7	n/a	n/a	n/a
161.361180	2	cue_nonsocial	n/a	16	-9	n/a	n/a	n/a
161.361180	2	cue_nonsocial_low	n/a	16	-9	n/a	n/a	n/a
172.226850	2	cue_nonsocial	n/a	32	7	n/a	n/a	n/a
172.226850	2	cue_nonsocial_high	n/a	32	7	n/a	n/a	n/a
179.877460	2	cue_nonsocial	n/a	16	-9	n/a	n/a	n/a
179.877460	2	cue_nonsocial_low	n/a	16	-9	n/a	n/a	n/a
186.814790	2	cue_social	n/a	16	-9	n/a	n/a	n/a
186.814790	2	cue_social_low	n/a	16	-9	n/a	n/a	n/a
193.630840	2	cue_social	n/a	32	7	n/a	n/a	n/a
193.630840	2	cue_social_high	n/a	32	7	n/a	n/a	n/a
200.377550	2	cue_nonsocial	n/a	16	-9	n/a	n/a	n/a
200.377550	2	cue_nonsocial_low	n/a	16	-9	n/a	n/a	n/a
208.127850	2	cue_social	n/a	32	7	n/a	n/a	n/a
208.127850	2	cue_social_high	n/a	32	7	n/a	n/a	n/a
218.993820	2	cue_social	n/a	32	7	n/a	n/a	n/a
218.993820	2	cue_social_high	n/a	32	7	n/a	n/a	n/a
225.817100	2	cue_social	n/a	16	-9	n/a	n/a	n/a
225.817100	2	cue_social_low	n/a	16	-9	n/a	n/a	n/a
232.682980	2	cue_social	n/a	16	-9	n/a	n/a	n/a
232.682980	2	cue_social_low	n/a	16	-9	n/a	n/a	n/a
241.810850	2	cue_nonsocial	n/a	16	-9	n/a	n/a	n/a
241.810850	2	cue_nonsocial_low	n/a	16	-9	n/a	n/a	n/a
249.525150	2	cue_social	n/a	32	7	n/a	n/a	n/a
249.525150	2	cue_social_high	n/a	32	7	n/a	n/a	n/a
256.389000	2	cue_social	n/a	32	7	n/a	n/a	n/a
256.389000	2	cue_social_high	n/a	32	7	n/a	n/a	n/a
264.045530	2	cue_social	n/a	32	7	n/a	n/a	n/a
264.045530	2	cue_social_high	n/a	32	7	n/a	n/a	n/a
270.776820	2	cue_social	n/a	16	-9	n/a	n/a	n/a
270.776820	2	cue_social_low	n/a	16	-9	n/a	n/a	n/a
278.427120	2	cue_nonsocial	n/a	16	-9	n/a	n/a	n/a
278.427120	2	cue_nonsocial_low	n/a	16	-9	n/a	n/a	n/a
285.259860	2	cue_nonsocial	n/a	32	7	n/a	n/a	n/a
285.259860	2	cue_nonsocial_high	n/a	32	7	n/a	n/a	n/a
292.094120	2	cue_nonsocial	n/a	32	7	n/a	n/a	n/a
292.094120	2	cue_nonsocial_high	n/a	32	7	n/a	n/a	n/a
299.828740	2	cue_social	n/a	32	7	n/a	n/a	n/a
299.828740	2	cue_social_high	n/a	32	7	n/a	n/a	n/a
308.994320	2	cue_nonsocial	n/a	16	-9	n/a	n/a	n/a
308.994320	2	cue_nonsocial_low	n/a	16	-9	n/a	n/a	n/a
318.244020	2	cue_nonsocial	n/a	32	7	n/a	n/a	n/a
318.244020	2	cue_nonsocial_high	n/a	32	7	n/a	n/a	n/a
325.076840	2	cue_nonsocial	n/a	16	-9	n/a	n/a	n/a
325.076840	2	cue_nonsocial_low	n/a	16	-9	n/a	n/a	n/a
332.802280	2	cue_social	n/a	16	-9	n/a	n/a	n/a
332.802280	2	cue_social_low	n/a	16	-9	n/a	n/a	n/a
339.653630	2	cue_social	n/a	32	7	n/a	n/a	n/a
339.653630	2	cue_social_high	n/a	32	7	n/a	n/a	n/a
347.302250	2	cue_social	n/a	32	7	n/a	n/a	n/a
347.302250	2	cue_social_high	n/a	32	7	n/a	n/a	n/a
354.859900	2	cue_nonsocial	n/a	16	-9	n/a	n/a	n/a
354.859900	2	cue_nonsocial_low	n/a	16	-9	n/a	n/a	n/a
361.693450	2	cue_nonsocial	n/a	32	7	n/a	n/a	n/a
361.693450	2	cue_nonsocial_high	n/a	32	7	n/a	n/a	n/a
368.527040	2	cue_nonsocial	n/a	32	7	n/a	n/a	n/a
368.527040	2	cue_nonsocial_high	n/a	32	7	n/a	n/a	n/a
6.516843	2.982893	dec_nonsocial_choice	2.982893	16.000000	n/a	0	0	-2.291667e-01
6.516843	2.982893	dec_choice	2.982893	16.000000	n/a	0	0	-2.278646e-01
6.516843	2.982893	dec_nonsocial_reject	2.982893	16.000000	n/a	0	0	-7.291667e-02
6.516843	2.982893	dec_reject	2.982893	16.000000	n/a	0	0	-9.375000e-02
6.516843	2.982893	dec_nonsocial_low	2.982893	16.000000	n/a	0	-2.278646e-01	-2.278646e-01
6.516843	2.982893	dec_nonsocial_reject_low	2.982893	16.000000	n/a	1	-9.375000e-02	-1.562500e-01
13.349570	1.533717	dec_social_choice	1.533717	16.000000	n/a	0	0	-2.291667e-01
13.349570	1.533717	dec_choice	1.533717	16.000000	n/a	0	0	-2.304688e-01
13.349570	1.533717	dec_social_reject	1.533717	16.000000	n/a	0	0	-7.291667e-02
13.349570	1.533717	dec_reject	1.533717	16.000000	n/a	0	0	0
13.349570	1.533717	dec_social_low	1.533717	16.000000	n/a	0	-2.304688e-01	-2.304688e-01
13.349570	1.533717	dec_social_reject_low	1.533717	16.000000	n/a	1	-1.679688e-01	-2.304688e-01
20.181953	0.917783	dec_social_choice	0.917783	16.000000	n/a	8	2.708333e-01	2.708333e-01
20.181953	0.917783	dec_choice	0.917783	16.000000	n/a	8	2.695312e-01	2.695312e-01
20.181953	0.917783	dec_social_accept	0.917783	16.000000	n/a	8	2.491987e-01	2.491987e-01
20.181953	0.917783	dec_accept	0.917783	16.000000	n/a	8	2.542614e-01	2.542614e-01
20.181953	0.917783	dec_social_accept_high	0.917783	16.000000	n/a	8	2.695312e-01	2.695312e-01
27.816942	1.949341	dec_social_choice	1.949341	16.000000	n/a	2	-1.041667e-01	-1.041667e-01
27.816942	1.949341	dec_choice	1.949341	16.000000	n/a	2	-1.054688e-01	-1.054688e-01
27.816942	1.949341	dec_social_accept	1.949341	16.000000	n/a	2	-1.258013e-01	-1.258013e-01
27.816942	1.949341	dec_accept	1.949341	16.000000	n/a	2	-1.207386e-01	-1.207386e-01
27.816942	1.949341	dec_social_accept_low	1.949341	16.000000	n/a	2	-1.054688e-01	-1.054688e-01
35.466960	1.649085	dec_nonsocial_choice	1.649085	32.000000	n/a	8	2.083333e-02	2.083333e-02
35.466960	1.649085	dec_choice	1.649085	32.000000	n/a	8	2.213542e-02	2.213542e-02
35.466960	1.649085	dec_nonsocial_accept	1.649085	32.000000	n/a	8	-8.012821e-04	-8.012821e-04
35.466960	1.649085	dec_accept	1.649085	32.000000	n/a	8	-7.352941e-03	-7.352941e-03
35.466960	1.649085	dec_nonsocial_high	1.649085	32.000000	n/a	8	2.213542e-02	2.213542e-02
35.466960	1.649085	dec_nonsocial_accept_high	1.649085	32.000000	n/a	8	-7.352941e-03	-7.352941e-03
42.299793	1.183123	dec_nonsocial_choice	1.183123	32.000000	n/a	16	2.708333e-01	2.708333e-01
42.299793	1.183123	dec_choice	1.183123	32.000000	n/a	16	2.721354e-01	2.721354e-01
42.299793	1.183123	dec_nonsocial_accept	1.183123	32.000000	n/a	16	2.491987e-01	2.491987e-01
42.299793	1.183123	dec_accept	1.183123	32.000000	n/a	16	2.426471e-01	2.426471e-01
42.299793	1.183123	dec_nonsocial_accept_high	1.183123	32.000000	n/a	16	2.542614e-01	2.542614e-01
51.550644	1.565854	dec_nonsocial_choice	1.565854	32.000000	n/a	3	-1.354167e-01	-1.354167e-01
51.550644	1.565854	dec_choice	1.565854	32.000000	n/a	3	-1.341146e-01	-1.341146e-01
51.550644	1.565854	dec_nonsocial_accept	1.565854	32.000000	n/a	3	-1.570513e-01	-1.570513e-01
51.550644	1.565854	dec_accept	1.565854	32.000000	n/a	3	-1.636029e-01	-1.636029e-01
51.550644	1.565854	dec_nonsocial_accept_low	1.565854	32.000000	n/a	3	-1.519886e-01	-1.519886e-01
60.816616	1.400055	dec_nonsocial_choice	1.400055	32.000000	n/a	3	-1.354167e-01	-1.354167e-01
60.816616	1.400055	dec_choice	1.400055	32.000000	n/a	3	-1.341146e-01	-1.341146e-01
60.816616	1.400055	dec_nonsocial_accept	1.400055	32.000000	n/a	3	-1.570513e-01	-1.570513e-01
60.816616	1.400055	dec_accept	1.400055	32.000000	n/a	3	-1.636029e-01	-1.636029e-01
60.816616	1.400055	dec_nonsocial_accept_low	1.400055	32.000000	n/a	3	-1.519886e-01	-1.519886e-01
67.649460	1.015992	dec_social_choice	1.015992	16.000000	n/a	8	2.708333e-01	2.708333e-01
67.649460	1.015992	dec_choice	1.015992	16.000000	n/a	8	2.695312e-01	2.695312e-01
67.649460	1.015992	dec_social_accept	1.015992	16.000000	n/a	8	2.491987e-01	2.491987e-01
67.649460	1.015992	dec_accept	1.015992	16.000000	n/a	8	2.542614e-01	2.542614e-01
67.649460	1.015992	dec_social_high	1.015992	16.000000	n/a	8	2.695312e-01	2.695312e-01
67.649460	1.015992	dec_social_accept_high	1.015992	16.000000	n/a	8	2.695312e-01	2.695312e-01
74.482925	1.483255	dec_nonsocial_choice	1.483255	16.000000	n/a	4	2.083333e-02	2.083333e-02
74.482925	1.483255	dec_choice	1.483255	16.000000	n/a	4	2.213542e-02	2.213542e-02
74.482925	1.483255	dec_nonsocial_accept	1.483255	16.000000	n/a	4	-8.012821e-04	-8.012821e-04
74.482925	1.483255	dec_accept	1.483255	16.000000	n/a	4	-7.352941e-03	-7.352941e-03
74.482925	1.483255	dec_nonsocial_accept_high	1.483255	16.000000	n/a	4	4.261364e-03	4.261364e-03
82.115910	1.350263	dec_social_choice	1.350263	16.000000	n/a	4	2.083333e-02	2.083333e-02
82.115910	1.350263	dec_choice	1.350263	16.000000	n/a	4	1.953125e-02	1.953125e-02
82.115910	1.350263	dec_social_accept	1.350263	16.000000	n/a	4	-8.012821e-04	-8.012821e-04
82.115910	1.350263	dec_accept	1.350263	16.000000	n/a	4	4.261364e-03	4.261364e-03
82.115910	1.350263	dec_social_high	1.350263	16.000000	n/a	4	1.953125e-02	1.953125e-02
82.115910	1.350263	dec_social_accept_high	1.350263	16.000000	n/a	4	1.953125e-02	1.953125e-02
88.948950	1.600519	dec_nonsocial_choice	1.600519	32.000000	n/a	0	0	-2.291667e-01
88.948950	1.600519	dec_choice	1.600519	32.000000	n/a	0	0	-2.278646e-01
88.948950	1.600519	dec_nonsocial_reject	1.600519	32.000000	n/a	0	0	-4.166667e-02
88.948950	1.600519	dec_reject	1.600519	32.000000	n/a	0	0	-6.250000e-02
88.948950	1.600519	dec_nonsocial_reject_low	1.600519	32.000000	n/a	3	3.125000e-02	-6.250000e-02
101.433784	1.282279	dec_social_choice	1.282279	32.000000	n/a	16	2.708333e-01	2.708333e-01
101.433784	1.282279	dec_choice	1.282279	32.000000	n/a	16	2.695312e-01	2.695312e-01
101.433784	1.282279	dec_social_accept	1.282279	32.000000	n/a	16	2.491987e-01	2.491987e-01
101.433784	1.282279	dec_accept	1.282279	32.000000	n/a	16	2.542614e-01	2.542614e-01
101.433784	1.282279	dec_social_accept_high	1.282279	32.000000	n/a	16	2.695312e-01	2.695312e-01
108.265100	1.683984	dec_social_choice	1.683984	32.000000	n/a	3	-1.354167e-01	-1.354167e-01
108.265100	1.683984	dec_choice	1.683984	32.000000	n/a	3	-1.367188e-01	-1.367188e-01
108.265100	1.683984	dec_social_accept	1.683984	32.000000	n/a	3	-1.570513e-01	-1.570513e-01
108.265100	1.683984	dec_accept	1.683984	32.000000	n/a	3	-1.519886e-01	-1.519886e-01
108.265100	1.683984	dec_social_accept_low	1.683984	32.000000	n/a	3	-1.367188e-01	-1.367188e-01
115.099915	1.183323	dec_nonsocial_choice	1.183323	32.000000	n/a	16	2.708333e-01	2.708333e-01
115.099915	1.183323	dec_choice	1.183323	32.000000	n/a	16	2.721354e-01	2.721354e-01
115.099915	1.183323	dec_nonsocial_accept	1.183323	32.000000	n/a	16	2.491987e-01	2.491987e-01
115.099915	1.183323	dec_accept	1.183323	32.000000	n/a	16	2.426471e-01	2.426471e-01
115.099915	1.183323	dec_nonsocial_high	1.183323	32.000000	n/a	16	2.721354e-01	2.721354e-01
115.099915	1.183323	dec_nonsocial_accept_high	1.183323	32.000000	n/a	16	2.426471e-01	2.426471e-01
121.932760	1.366329	dec_nonsocial_choice	1.366329	16.000000	n/a	0	0	-2.291667e-01
121.932760	1.366329	dec_choice	1.366329	16.000000	n/a	0	0	-2.278646e-01
121.932760	1.366329	dec_nonsocial_reject	1.366329	16.000000	n/a	0	0	-7.291667e-02
121.932760	1.366329	dec_reject	1.366329	16.000000	n/a	0	0	-9.375000e-02
121.932760	1.366329	dec_nonsocial_reject_low	1.366329	16.000000	n/a	1	0	-6.250000e-02
128.765850	1.250158	dec_social_choice	1.250158	32.000000	n/a	8	2.083333e-02	2.083333e-02
128.765850	1.250158	dec_choice	1.250158	32.000000	n/a	8	1.953125e-02	1.953125e-02
128.765850	1.250158	dec_social_accept	1.250158	32.000000	n/a	8	-8.012821e-04	-8.012821e-04
128.765850	1.250158	dec_accept	1.250158	32.000000	n/a	8	4.261364e-03	4.261364e-03
128.765850	1.250158	dec_social_high	1.250158	32.000000	n/a	8	1.953125e-02	1.953125e-02
128.765850	1.250158	dec_social_accept_high	1.250158	32.000000	n/a	8	1.953125e-02	1.953125e-02
135.600220	1.999122	dec_social_choice	1.999122	32.000000	n/a	2	-1.666667e-01	-1.666667e-01
135.600220	1.999122	dec_choice	1.999122	32.000000	n/a	2	-1.679688e-01	-1.679688e-01
135.600220	1.999122	dec_social_accept	1.999122	32.000000	n/a	2	-1.883013e-01	-1.883013e-01
135.600220	1.999122	dec_accept	1.999122	32.000000	n/a	2	-1.832386e-01	-1.832386e-01
135.600220	1.999122	dec_social_low	1.999122	32.000000	n/a	2	-1.679688e-01	-1.679688e-01
135.600220	1.999122	dec_social_accept_low	1.999122	32.000000	n/a	2	-1.679688e-01	-1.679688e-01
146.465090	1.250891	dec_social_choice	1.250891	16.000000	n/a	4	2.083333e-02	2.083333e-02
146.465090	1.250891	dec_choice	1.250891	16.000000	n/a	4	1.953125e-02	1.953125e-02
146.465090	1.250891	dec_social_accept	1.250891	16.000000	n/a	4	-8.012821e-04	-8.012821e-04
146.465090	1.250891	dec_accept	1.250891	16.000000	n/a	4	4.261364e-03	4.261364e-03
146.465090	1.250891	dec_social_high	1.250891	16.000000	n/a	4	1.953125e-02	1.953125e-02
146.465090	1.250891	dec_social_accept_high	1.250891	16.000000	n/a	4	1.953125e-02	1.953125e-02
155.716950	1.149036	dec_nonsocial_choice	1.149036	32.000000	n/a	0	0	-2.291667e-01
155.716950	1.149036	dec_choice	1.149036	32.000000	n/a	0	0	-2.278646e-01
155.716950	1.149036	dec_nonsocial_reject	1.149036	32.000000	n/a	0	0	1.145833e-01
155.716950	1.149036	dec_reject	1.149036	32.000000	n/a	0	0	9.375000e-02
155.716950	1.149036	dec_nonsocial_low	1.149036	32.000000	n/a	0	-2.278646e-01	-2.278646e-01
155.716950	1.149036	dec_nonsocial_reject_low	1.149036	32.000000	n/a	8	9.375000e-02	-1.562500e-01
163.365800	1.366679	dec_nonsocial_choice	1.366679	16.000000	n/a	4	2.083333e-02	2.083333e-02
163.365800	1.366679	dec_choice	1.366679	16.000000	n/a	4	2.213542e-02	2.213542e-02
163.365800	1.366679	dec_nonsocial_accept	1.366679	16.000000	n/a	4	-8.012821e-04	-8.012821e-04
163.365800	1.366679	dec_accept	1.366679	16.000000	n/a	4	-7.352941e-03	-7.352941e-03
163.365800	1.366679	dec_nonsocial_accept_high	1.366679	16.000000	n/a	4	4.261364e-03	4.261364e-03
174.232860	1.883285	dec_nonsocial_choice	1.883285	32.000000	n/a	16	2.708333e-01	2.708333e-01
174.232860	1.883285	dec_choice	1.883285	32.000000	n/a	16	2.721354e-01	2.721354e-01
174.232860	1.883285	dec_nonsocial_accept	1.883285	32.000000	n/a	16	2.491987e-01	2.491987e-01
174.232860	1.883285	dec_accept	1.883285	32.000000	n/a	16	2.426471e-01	2.426471e-01
174.232860	1.883285	dec_nonsocial_high	1.883285	32.000000	n/a	16	2.721354e-01	2.721354e-01
174.232860	1.883285	dec_nonsocial_accept_high	1.883285	32.000000	n/a	16	2.426471e-01	2.426471e-01
181.882660	1.399779	dec_nonsocial_choice	1.399779	16.000000	n/a	2	-1.041667e-01	-1.041667e-01
181.882660	1.399779	dec_choice	1.399779	16.000000	n/a	2	-1.028646e-01	-1.028646e-01
181.882660	1.399779	dec_nonsocial_accept	1.399779	16.000000	n/a	2	-1.258013e-01	-1.258013e-01
181.882660	1.399779	dec_accept	1.399779	16.000000	n/a	2	-1.323529e-01	-1.323529e-01
181.882660	1.399779	dec_nonsocial_low	1.399779	16.000000	n/a	2	-1.028646e-01	-1.028646e-01
181.882660	1.399779	dec_nonsocial_accept_low	1.399779	16.000000	n/a	2	-1.323529e-01	-1.323529e-01
188.715880	1.166793	dec_social_choice	1.166793	16.000000	n/a	8	2.708333e-01	2.708333e-01
188.715880	1.166793	dec_choice	1.166793	16.000000	n/a	8	2.695312e-01	2.695312e-01
188.715880	1.166793	dec_social_accept	1.166793	16.000000	n/a	8	2.491987e-01	2.491987e-01
188.715880	1.166793	dec_accept	1.166793	16.000000	n/a	8	2.542614e-01	2.542614e-01
188.715880	1.166793	dec_social_high	1.166793	16.000000	n/a	8	2.695312e-01	2.695312e-01
188.715880	1.166793	dec_social_accept_high	1.166793	16.000000	n/a	8	2.695312e-01	2.695312e-01
195.549870	1.815369	dec_social_choice	1.815369	32.000000	n/a	2	-1.666667e-01	-1.666667e-01
195.549870	1.815369	dec_choice	1.815369	32.000000	n/a	2	-1.679688e-01	-1.679688e-01
195.549870	1.815369	dec_social_accept	1.815369	32.000000	n/a	2	-1.883013e-01	-1.883013e-01
195.549870	1.815369	dec_accept	1.815369	32.000000	n/a	2	-1.832386e-01	-1.832386e-01
195.549870	1.815369	dec_social_low	1.815369	32.000000	n/a	2	-1.679688e-01	-1.679688e-01
195.549870	1.815369	dec_social_accept_low	1.815369	32.000000	n/a	2	-1.679688e-01	-1.679688e-01
202.382800	1.666000	dec_nonsocial_choice	1.666000	16.000000	n/a	1	-1.666667e-01	-1.666667e-01
202.382800	1.666000	dec_choice	1.666000	16.000000	n/a	1	-1.653646e-01	-1.653646e-01
202.382800	1.666000	dec_nonsocial_accept	1.666000	16.000000	n/a	1	-1.883013e-01	-1.883013e-01
202.382800	1.666000	dec_accept	1.666000	16.000000	n/a	1	-1.948529e-01	-1.948529e-01
202.382800	1.666000	dec_nonsocial_low	1.666000	16.000000	n/a	1	-1.653646e-01	-1.653646e-01
202.382800	1.666000	dec_nonsocial_accept_low	1.666000	16.000000	n/a	1	-1.948529e-01	-1.948529e-01
210.032640	1.033300	dec_social_choice	1.033300	32.000000	n/a	8	2.083333e-02	2.083333e-02
210.032640	1.033300	dec_choice	1.033300	32.000000	n/a	8	1.953125e-02	1.953125e-02
210.032640	1.033300	dec_social_accept	1.033300	32.000000	n/a	8	-8.012821e-04	-8.012821e-04
210.032640	1.033300	dec_accept	1.033300	32.000000	n/a	8	4.261364e-03	4.261364e-03
210.032640	1.033300	dec_social_high	1.033300	32.000000	n/a	8	1.953125e-02	1.953125e-02
210.032640	1.033300	dec_social_accept_high	1.033300	32.000000	n/a	8	1.953125e-02	1.953125e-02
220.899430	1.433161	dec_social_choice	1.433161	32.000000	n/a	3	-1.354167e-01	-1.354167e-01
220.899430	1.433161	dec_choice	1.433161	32.000000	n/a	3	-1.367188e-01	-1.367188e-01
220.899430	1.433161	dec_social_accept	1.433161	32.000000	n/a	3	-1.570513e-01	-1.570513e-01
220.899430	1.433161	dec_accept	1.433161	32.000000	n/a	3	-1.519886e-01	-1.519886e-01
220.899430	1.433161	dec_social_low	1.433161	32.000000	n/a	3	-1.367188e-01	-1.367188e-01
220.899430	1.433161	dec_social_accept_low	1.433161	32.000000	n/a	3	-1.367188e-01	-1.367188e-01
227.732960	1.282825	dec_social_choice	1.282825	16.000000	n/a	4	2.083333e-02	2.083333e-02
227.732960	1.282825	dec_choice	1.282825	16.000000	n/a	4	1.953125e-02	1.953125e-02
227.732960	1.282825	dec_social_accept	1.282825	16.000000	n/a	4	-8.012821e-04	-8.012821e-04
227.732960	1.282825	dec_accept	1.282825	16.000000	n/a	4	4.261364e-03	4.261364e-03
227.732960	1.282825	dec_social_accept_high	1.282825	16.000000	n/a	4	1.953125e-02	1.953125e-02
234.564820	1.683832	dec_social_choice	1.683832	16.000000	n/a	2	-1.041667e-01	-1.041667e-01
234.564820	1.683832	dec_choice	1.683832	16.000000	n/a	2	-1.054688e-01	-1.054688e-01
234.564820	1.683832	dec_social_accept	1.683832	16.000000	n/a	2	-1.258013e-01	-1.258013e-01
234.564820	1.683832	dec_accept	1.683832	16.000000	n/a	2	-1.207386e-01	-1.207386e-01
234.564820	1.683832	dec_social_accept_low	1.683832	16.000000	n/a	2	-1.054688e-01	-1.054688e-01
243.815720	1.283584	dec_nonsocial_choice	1.283584	16.000000	n/a	4	2.083333e-02	2.083333e-02
243.815720	1.283584	dec_choice	1.283584	16.000000	n/a	4	2.213542e-02	2.213542e-02
243.815720	1.283584	dec_nonsocial_accept	1.283584	16.000000	n/a	4	-8.012821e-04	-8.012821e-04
243.815720	1.283584	dec_accept	1.283584	16.000000	n/a	4	-7.352941e-03	-7.352941e-03
243.815720	1.283584	dec_nonsocial_high	1.283584	16.000000	n/a	4	2.213542e-02	2.213542e-02
243.815720	1.283584	dec_nonsocial_accept_high	1.283584	16.000000	n/a	4	-7.352941e-03	-7.352941e-03
251.465560	1.600198	dec_social_choice	1.600198	32.000000	n/a	3	-1.354167e-01	-1.354167e-01
251.465560	1.600198	dec_choice	1.600198	32.000000	n/a	3	-1.367188e-01	-1.367188e-01
251.465560	1.600198	dec_social_accept	1.600198	32.000000	n/a	3	-1.570513e-01	-1.570513e-01
251.465560	1.600198	dec_accept	1.600198	32.000000	n/a	3	-1.519886e-01	-1.519886e-01
251.465560	1.600198	dec_social_accept_low	1.600198	32.000000	n/a	3	-1.367188e-01	-1.367188e-01
258.298680	1.333089	dec_social_choice	1.333089	32.000000	n/a	16	2.708333e-01	2.708333e-01
258.298680	1.333089	dec_choice	1.333089	32.000000	n/a	16	2.695312e-01	2.695312e-01
258.298680	1.333089	dec_social_accept	1.333089	32.000000	n/a	16	2.491987e-01	2.491987e-01
258.298680	1.333089	dec_accept	1.333089	32.000000	n/a	16	2.542614e-01	2.542614e-01
258.298680	1.333089	dec_social_high	1.333089	32.000000	n/a	16	2.695312e-01	2.695312e-01
258.298680	1.333089	dec_social_accept_high	1.333089	32.000000	n/a	16	2.695312e-01	2.695312e-01
265.949130	1.799870	dec_social_choice	1.799870	32.000000	n/a	2	-1.666667e-01	-1.666667e-01
265.949130	1.799870	dec_choice	1.799870	32.000000	n/a	2	-1.679688e-01	-1.679688e-01
265.949130	1.799870	dec_social_accept	1.799870	32.000000	n/a	2	-1.883013e-01	-1.883013e-01
265.949130	1.799870	dec_accept	1.799870	32.000000	n/a	2	-1.832386e-01	-1.832386e-01
265.949130	1.799870	dec_social_accept_low	1.799870	32.000000	n/a	2	-1.679688e-01	-1.679688e-01
272.782070	1.416691	dec_social_choice	1.416691	16.000000	n/a	0	0	-2.291667e-01
272.782070	1.416691	dec_choice	1.416691	16.000000	n/a	0	0	-2.304688e-01
272.782070	1.416691	dec_social_reject	1.416691	16.000000	n/a	0	0	-7.291667e-02
272.782070	1.416691	dec_reject	1.416691	16.000000	n/a	0	0	0
272.782070	1.416691	dec_social_low	1.416691	16.000000	n/a	0	-2.304688e-01	-2.304688e-01
272.782070	1.416691	dec_social_reject_low	1.416691	16.000000	n/a	1	-1.679688e-01	-2.304688e-01
280.431950	1.183863	dec_nonsocial_choice	1.183863	16.000000	n/a	8	2.708333e-01	2.708333e-01
280.431950	1.183863	dec_choice	1.183863	16.000000	n/a	8	2.721354e-01	2.721354e-01
280.431950	1.183863	dec_nonsocial_accept	1.183863	16.000000	n/a	8	2.491987e-01	2.491987e-01
280.431950	1.183863	dec_accept	1.183863	16.000000	n/a	8	2.426471e-01	2.426471e-01
280.431950	1.183863	dec_nonsocial_accept_high	1.183863	16.000000	n/a	8	2.542614e-01	2.542614e-01
287.265960	1.482999	dec_nonsocial_choice	1.482999	32.000000	n/a	8	2.083333e-02	2.083333e-02
287.265960	1.482999	dec_choice	1.482999	32.000000	n/a	8	2.213542e-02	2.213542e-02
287.265960	1.482999	dec_nonsocial_accept	1.482999	32.000000	n/a	8	-8.012821e-04	-8.012821e-04
287.265960	1.482999	dec_accept	1.482999	32.000000	n/a	8	-7.352941e-03	-7.352941e-03
287.265960	1.482999	dec_nonsocial_accept_high	1.482999	32.000000	n/a	8	4.261364e-03	4.261364e-03
294.098800	1.233080	dec_nonsocial_choice	1.233080	32.000000	n/a	16	2.708333e-01	2.708333e-01
294.098800	1.233080	dec_choice	1.233080	32.000000	n/a	16	2.721354e-01	2.721354e-01
294.098800	1.233080	dec_nonsocial_accept	1.233080	32.000000	n/a	16	2.491987e-01	2.491987e-01
294.098800	1.233080	dec_accept	1.233080	32.000000	n/a	16	2.426471e-01	2.426471e-01
294.098800	1.233080	dec_nonsocial_accept_high	1.233080	32.000000	n/a	16	2.542614e-01	2.542614e-01
301.747920	1.400947	dec_social_choice	1.400947	32.000000	n/a	2	-1.666667e-01	-1.666667e-01
301.747920	1.400947	dec_choice	1.400947	32.000000	n/a	2	-1.679688e-01	-1.679688e-01
301.747920	1.400947	dec_social_accept	1.400947	32.000000	n/a	2	-1.883013e-01	-1.883013e-01
301.747920	1.400947	dec_accept	1.400947	32.000000	n/a	2	-1.832386e-01	-1.832386e-01
301.747920	1.400947	dec_social_accept_low	1.400947	32.000000	n/a	2	-1.679688e-01	-1.679688e-01
310.998700	1.716468	dec_nonsocial_choice	1.716468	16.000000	n/a	0	0	-2.291667e-01
310.998700	1.716468	dec_choice	1.716468	16.000000	n/a	0	0	-2.278646e-01
310.998700	1.716468	dec_nonsocial_reject	1.716468	16.000000	n/a	0	0	-7.291667e-02
310.998700	1.716468	dec_reject	1.716468	16.000000	n/a	0	0	-9.375000e-02
310.998700	1.716468	dec_nonsocial_reject_low	1.716468	16.000000	n/a	1	0	-6.250000e-02
320.249400	1.632981	dec_nonsocial_choice	1.632981	32.000000	n/a	3	-1.354167e-01	-1.354167e-01
320.249400	1.632981	dec_choice	1.632981	32.000000	n/a	3	-1.341146e-01	-1.341146e-01
320.249400	1.632981	dec_nonsocial_accept	1.632981	32.000000	n/a	3	-1.570513e-01	-1.570513e-01
320.249400	1.632981	dec_accept	1.632981	32.000000	n/a	3	-1.636029e-01	-1.636029e-01
320.249400	1.632981	dec_nonsocial_accept_low	1.632981	32.000000	n/a	3	-1.519886e-01	-1.519886e-01
327.081730	1.200535	dec_nonsocial_choice	1.200535	16.000000	n/a	0	0	-2.291667e-01
327.081730	1.200535	dec_choice	1.200535	16.000000	n/a	0	0	-2.278646e-01
327.081730	1.200535	dec_nonsocial_reject	1.200535	16.000000	n/a	0	0	-7.291667e-02
327.081730	1.200535	dec_reject	1.200535	16.000000	n/a	0	0	-9.375000e-02
327.081730	1.200535	dec_nonsocial_reject_low	1.200535	16.000000	n/a	1	0	-6.250000e-02
334.731050	2.150801	dec_social_choice	2.150801	16.000000	n/a	2	-1.041667e-01	-1.041667e-01
334.731050	2.150801	dec_choice	2.150801	16.000000	n/a	2	-1.054688e-01	-1.054688e-01
334.731050	2.150801	dec_social_accept	2.150801	16.000000	n/a	2	-1.258013e-01	-1.258013e-01
334.731050	2.150801	dec_accept	2.150801	16.000000	n/a	2	-1.207386e-01	-1.207386e-01
334.731050	2.150801	dec_social_accept_low	2.150801	16.000000	n/a	2	-1.054688e-01	-1.054688e-01
341.565370	1.066710	dec_social_choice	1.066710	32.000000	n/a	16	2.708333e-01	2.708333e-01
341.565370	1.066710	dec_choice	1.066710	32.000000	n/a	16	2.695312e-01	2.695312e-01
341.565370	1.066710	dec_social_accept	1.066710	32.000000	n/a	16	2.491987e-01	2.491987e-01
341.565370	1.066710	dec_accept	1.066710	32.000000	n/a	16	2.542614e-01	2.542614e-01
341.565370	1.066710	dec_social_high	1.066710	32.000000	n/a	16	2.695312e-01	2.695312e-01
341.565370	1.066710	dec_social_accept_high	1.066710	32.000000	n/a	16	2.695312e-01	2.695312e-01
349.215100	1.117123	dec_social_choice	1.117123	32.000000	n/a	8	2.083333e-02	2.083333e-02
349.215100	1.117123	dec_choice	1.117123	32.000000	n/a	8	1.953125e-02	1.953125e-02
349.215100	1.117123	dec_social_accept	1.117123	32.000000	n/a	8	-8.012821e-04	-8.012821e-04
349.215100	1.117123	dec_accept	1.117123	32.000000	n/a	8	4.261364e-03	4.261364e-03
349.215100	1.117123	dec_social_high	1.117123	32.000000	n/a	8	1.953125e-02	1.953125e-02
349.215100	1.117123	dec_social_accept_high	1.117123	32.000000	n/a	8	1.953125e-02	1.953125e-02
356.865700	1.100181	dec_nonsocial_choice	1.100181	16.000000	n/a	0	0	-2.291667e-01
356.865700	1.100181	dec_choice	1.100181	16.000000	n/a	0	0	-2.278646e-01
356.865700	1.100181	dec_nonsocial_reject	1.100181	16.000000	n/a	0	0	3.645833e-01
356.865700	1.100181	dec_reject	1.100181	16.000000	n/a	0	0	3.437500e-01
356.865700	1.100181	dec_nonsocial_low	1.100181	16.000000	n/a	0	-2.278646e-01	-2.278646e-01
356.865700	1.100181	dec_nonsocial_reject_low	1.100181	16.000000	n/a	8	3.437500e-01	-1.562500e-01
363.699000	1.499879	dec_nonsocial_choice	1.499879	32.000000	n/a	3	-1.354167e-01	-1.354167e-01
363.699000	1.499879	dec_choice	1.499879	32.000000	n/a	3	-1.341146e-01	-1.341146e-01
363.699000	1.499879	dec_nonsocial_accept	1.499879	32.000000	n/a	3	-1.570513e-01	-1.570513e-01
363.699000	1.499879	dec_accept	1.499879	32.000000	n/a	3	-1.636029e-01	-1.636029e-01
363.699000	1.499879	dec_nonsocial_low	1.499879	32.000000	n/a	3	-1.341146e-01	-1.341146e-01
363.699000	1.499879	dec_nonsocial_accept_low	1.499879	32.000000	n/a	3	-1.636029e-01	-1.636029e-01
370.532680	1.799877	dec_nonsocial_choice	1.799877	32.000000	n/a	2	-1.666667e-01	-1.666667e-01
370.532680	1.799877	dec_choice	1.799877	32.000000	n/a	2	-1.653646e-01	-1.653646e-01
370.532680	1.799877	dec_nonsocial_accept	1.799877	32.000000	n/a	2	-1.883013e-01	-1.883013e-01
370.532680	1.799877	dec_accept	1.799877	32.000000	n/a	2	-1.948529e-01	-1.948529e-01
370.532680	1.799877	dec_nonsocial_accept_low	1.799877	32.000000	n/a	2	-1.832386e-01	-1.832386e-01
