onset	duration	trial_type	response_time	Endowment	Decision	Offer
4.505905	2	cue_nonsocial	n/a	16	n/a	n/a
4.505905	2	cue_nonsocial_low	n/a	16	n/a	n/a
6.511858	1.283202	dec_nonsocial_low	1.283202	16	n/a	8
6.511858	1.283202	dec_nonsocial_low_accept	1.283202	16	accept	8
11.443345	2	cue_social	n/a	16	n/a	n/a
11.443345	2	cue_social_low	n/a	16	n/a	n/a
13.344944	2.100077	dec_social_low	2.100077	16	n/a	2
13.344944	2.100077	dec_social_low_accept	2.100077	16	accept	2
20.589980	2	cue_nonsocial	n/a	32	n/a	n/a
20.589980	2	cue_nonsocial_high	n/a	32	n/a	n/a
22.595900	1.049182	dec_nonsocial_high	1.049182	32	n/a	3
22.595900	1.049182	dec_nonsocial_high_accept	1.049182	32	accept	3
28.325924	2	cue_social	n/a	32	n/a	n/a
28.325924	2	cue_social_high	n/a	32	n/a	n/a
30.244783	1.866679	dec_social_high	1.866679	32	n/a	2
30.244783	1.866679	dec_social_high_reject	1.866679	32	reject	2
35.889530	2	cue_nonsocial	n/a	32	n/a	n/a
35.889530	2	cue_nonsocial_high	n/a	32	n/a	n/a
37.895992	1.165365	dec_nonsocial_high	1.165365	32	n/a	16
37.895992	1.165365	dec_nonsocial_high_accept	1.165365	32	accept	16
42.814243	2	cue_social	n/a	16	n/a	n/a
42.814243	2	cue_social_low	n/a	16	n/a	n/a
44.728380	1.100027	dec_social_low	1.100027	16	n/a	8
44.728380	1.100027	dec_social_low_accept	1.100027	16	accept	8
49.557340	2	cue_nonsocial	n/a	32	n/a	n/a
49.557340	2	cue_nonsocial_high	n/a	32	n/a	n/a
51.560960	1.301142	dec_nonsocial_high	1.301142	32	n/a	2
51.560960	1.301142	dec_nonsocial_high_reject	1.301142	32	reject	2
56.389890	2	cue_nonsocial	n/a	32	n/a	n/a
56.389890	2	cue_nonsocial_high	n/a	32	n/a	n/a
58.395634	1.965583	dec_nonsocial_high	1.965583	32	n/a	8
58.395634	1.965583	dec_nonsocial_high_reject	1.965583	32	reject	8
63.223232	2	cue_nonsocial	n/a	16	n/a	n/a
63.223232	2	cue_nonsocial_low	n/a	16	n/a	n/a
65.228840	2.465532	dec_nonsocial_low	2.465532	16	n/a	4
65.228840	2.465532	dec_nonsocial_low_reject	2.465532	16	reject	4
70.151710	2	cue_social	n/a	16	n/a	n/a
70.151710	2	cue_social_low	n/a	16	n/a	n/a
72.061850	1.249697	dec_social_low	1.249697	16	n/a	8
72.061850	1.249697	dec_social_low_accept	1.249697	16	accept	8
79.306470	2	cue_nonsocial	n/a	32	n/a	n/a
79.306470	2	cue_nonsocial_high	n/a	32	n/a	n/a
81.311470	2.350227	dec_nonsocial_high	2.350227	32	n/a	3
81.311470	2.350227	dec_nonsocial_high_reject	2.350227	32	reject	3
87.055490	2	cue_social	n/a	16	n/a	n/a
87.055490	2	cue_social_low	n/a	16	n/a	n/a
88.944030	1.284344	dec_social_low	1.284344	16	n/a	4
88.944030	1.284344	dec_social_low_reject	1.284344	16	reject	4
93.773530	2	cue_nonsocial	n/a	32	n/a	n/a
93.773530	2	cue_nonsocial_high	n/a	32	n/a	n/a
95.778860	1.732835	dec_nonsocial_high	1.732835	32	n/a	2
95.778860	1.732835	dec_nonsocial_high_reject	1.732835	32	reject	2
100.693726	2	cue_social	n/a	32	n/a	n/a
100.693726	2	cue_social_high	n/a	32	n/a	n/a
102.612550	1.282242	dec_social_high	1.282242	32	n/a	8
102.612550	1.282242	dec_social_high_accept	1.282242	32	accept	8
111.472810	2	cue_nonsocial	n/a	32	n/a	n/a
111.472810	2	cue_nonsocial_high	n/a	32	n/a	n/a
113.477890	1.233913	dec_nonsocial_high	1.233913	32	n/a	2
113.477890	1.233913	dec_nonsocial_high_reject	1.233913	32	reject	2
122.441440	2	cue_social	n/a	16	n/a	n/a
122.441440	2	cue_social_low	n/a	16	n/a	n/a
124.345820	1.515710	dec_social_low	1.515710	16	n/a	4
124.345820	1.515710	dec_social_low_reject	1.515710	16	reject	4
133.295870	2	cue_social	n/a	32	n/a	n/a
133.295870	2	cue_social_high	n/a	32	n/a	n/a
135.211850	1.482864	dec_social_high	1.482864	32	n/a	3
135.211850	1.482864	dec_social_high_reject	1.482864	32	reject	3
140.039030	2	cue_nonsocial	n/a	16	n/a	n/a
140.039030	2	cue_nonsocial_low	n/a	16	n/a	n/a
142.043880	1.301103	dec_nonsocial_low	1.301103	16	n/a	2
142.043880	1.301103	dec_nonsocial_low_reject	1.301103	16	reject	2
147.775130	2	cue_social	n/a	16	n/a	n/a
147.775130	2	cue_social_low	n/a	16	n/a	n/a
149.677930	2.050215	dec_social_low	2.050215	16	n/a	2
149.677930	2.050215	dec_social_low_reject	2.050215	16	reject	2
155.417500	2	cue_social	n/a	16	n/a	n/a
155.417500	2	cue_social_low	n/a	16	n/a	n/a
157.329060	1.632400	dec_social_low	1.632400	16	n/a	4
157.329060	1.632400	dec_social_low_accept	1.632400	16	accept	4
162.216130	2	cue_social	n/a	32	n/a	n/a
162.216130	2	cue_social_high	n/a	32	n/a	n/a
164.161010	1.850389	dec_social_high	1.850389	32	n/a	2
164.161010	1.850389	dec_social_high_reject	1.850389	32	reject	2
174.639590	2	cue_nonsocial	n/a	16	n/a	n/a
174.639590	2	cue_nonsocial_low	n/a	16	n/a	n/a
176.644870	2.082919	dec_nonsocial_low	2.082919	16	n/a	2
176.644870	2.082919	dec_nonsocial_low_reject	2.082919	16	reject	2
181.472670	2	cue_nonsocial	n/a	16	n/a	n/a
181.472670	2	cue_nonsocial_low	n/a	16	n/a	n/a
183.478710	1.332608	dec_nonsocial_low	1.332608	16	n/a	2
183.478710	1.332608	dec_nonsocial_low_reject	1.332608	16	reject	2
188.305740	2	cue_nonsocial	n/a	32	n/a	n/a
188.305740	2	cue_nonsocial_high	n/a	32	n/a	n/a
190.312380	1.483361	dec_nonsocial_high	1.483361	32	n/a	2
190.312380	1.483361	dec_nonsocial_high_reject	1.483361	32	reject	2
195.139420	2	cue_nonsocial	n/a	32	n/a	n/a
195.139420	2	cue_nonsocial_high	n/a	32	n/a	n/a
197.145720	1.198975	dec_nonsocial_high	1.198975	32	n/a	16
197.145720	1.198975	dec_nonsocial_high_accept	1.198975	32	accept	16
204.405430	2	cue_nonsocial	n/a	32	n/a	n/a
204.405430	2	cue_nonsocial_high	n/a	32	n/a	n/a
206.412230	1.232547	dec_nonsocial_high	1.232547	32	n/a	2
206.412230	1.232547	dec_nonsocial_high_reject	1.232547	32	reject	2
211.335220	2	cue_social	n/a	16	n/a	n/a
211.335220	2	cue_social_low	n/a	16	n/a	n/a
213.245880	1.098577	dec_social_low	1.098577	16	n/a	2
213.245880	1.098577	dec_social_low_reject	1.098577	16	reject	2
218.963670	2	cue_social	n/a	16	n/a	n/a
218.963670	2	cue_social_low	n/a	16	n/a	n/a
220.893970	1.951107	dec_social_low	1.951107	16	n/a	8
220.893970	1.951107	dec_social_low_reject	1.951107	16	reject	8
225.819720	2	cue_social	n/a	32	n/a	n/a
225.819720	2	cue_social_high	n/a	32	n/a	n/a
227.727840	2.316242	dec_social_high	2.316242	32	n/a	2
227.727840	2.316242	dec_social_high_reject	2.316242	32	reject	2
232.670010	2	cue_social	n/a	32	n/a	n/a
232.670010	2	cue_social_high	n/a	32	n/a	n/a
234.560910	1.733179	dec_social_high	1.733179	32	n/a	3
234.560910	1.733179	dec_social_high_accept	1.733179	32	accept	3
239.440120	2	cue_social	n/a	16	n/a	n/a
239.440120	2	cue_social_low	n/a	16	n/a	n/a
241.395320	1.615176	dec_social_low	1.615176	16	n/a	1
241.395320	1.615176	dec_social_low_reject	1.615176	16	reject	1
246.222890	2	cue_nonsocial	n/a	16	n/a	n/a
246.222890	2	cue_nonsocial_low	n/a	16	n/a	n/a
248.226930	1.767152	dec_nonsocial_low	1.767152	16	n/a	4
248.226930	1.767152	dec_nonsocial_low_accept	1.767152	16	accept	4
255.472050	2	cue_nonsocial	n/a	16	n/a	n/a
255.472050	2	cue_nonsocial_low	n/a	16	n/a	n/a
257.477840	1.183040	dec_nonsocial_low	1.183040	16	n/a	2
257.477840	1.183040	dec_nonsocial_low_reject	1.183040	16	reject	2
262.401640	2	cue_social	n/a	32	n/a	n/a
262.401640	2	cue_social_high	n/a	32	n/a	n/a
264.310730	1.200425	dec_social_high	1.200425	32	n/a	16
264.310730	1.200425	dec_social_high_accept	1.200425	32	accept	16
270.050750	2	cue_social	n/a	32	n/a	n/a
270.050750	2	cue_social_high	n/a	32	n/a	n/a
271.944000	1.050957	dec_social_high	1.050957	32	n/a	2
271.944000	1.050957	dec_social_high_reject	1.050957	32	reject	2
279.189300	2	cue_nonsocial	n/a	32	n/a	n/a
279.189300	2	cue_nonsocial_high	n/a	32	n/a	n/a
281.195000	1.565655	dec_nonsocial_high	1.565655	32	n/a	8
281.195000	1.565655	dec_nonsocial_high_reject	1.565655	32	reject	8
286.838600	2	cue_nonsocial	n/a	16	n/a	n/a
286.838600	2	cue_nonsocial_low	n/a	16	n/a	n/a
288.844360	1.800031	dec_nonsocial_low	1.800031	16	n/a	4
288.844360	1.800031	dec_nonsocial_low_accept	1.800031	16	accept	4
293.671900	2	cue_nonsocial	n/a	32	n/a	n/a
293.671900	2	cue_nonsocial_high	n/a	32	n/a	n/a
295.677860	1.199698	dec_nonsocial_high	1.199698	32	n/a	16
295.677860	1.199698	dec_nonsocial_high_accept	1.199698	32	accept	16
302.923830	2	cue_nonsocial	n/a	32	n/a	n/a
302.923830	2	cue_nonsocial_high	n/a	32	n/a	n/a
304.927370	1.233742	dec_nonsocial_high	1.233742	32	n/a	8
304.927370	1.233742	dec_nonsocial_high_accept	1.233742	32	accept	8
309.830230	2	cue_social	n/a	32	n/a	n/a
309.830230	2	cue_social_high	n/a	32	n/a	n/a
311.761000	1.382747	dec_social_high	1.382747	32	n/a	16
311.761000	1.382747	dec_social_high_accept	1.382747	32	accept	16
316.694580	2	cue_social	n/a	16	n/a	n/a
316.694580	2	cue_social_low	n/a	16	n/a	n/a
318.594270	1.600019	dec_social_low	1.600019	16	n/a	1
318.594270	1.600019	dec_social_low_reject	1.600019	16	reject	1
324.261080	2	cue_social	n/a	32	n/a	n/a
324.261080	2	cue_social_high	n/a	32	n/a	n/a
326.227200	1.283655	dec_social_high	1.283655	32	n/a	8
326.227200	1.283655	dec_social_high_accept	1.283655	32	accept	8
331.979860	2	cue_social	n/a	16	n/a	n/a
331.979860	2	cue_social_low	n/a	16	n/a	n/a
333.878660	1.114974	dec_social_low	1.114974	16	n/a	8
333.878660	1.114974	dec_social_low_accept	1.114974	16	accept	8
341.138340	2	cue_nonsocial	n/a	32	n/a	n/a
341.138340	2	cue_nonsocial_high	n/a	32	n/a	n/a
343.144700	1.049563	dec_nonsocial_high	1.049563	32	n/a	16
343.144700	1.049563	dec_nonsocial_high_accept	1.049563	32	accept	16
347.972170	2	cue_nonsocial	n/a	16	n/a	n/a
347.972170	2	cue_nonsocial_low	n/a	16	n/a	n/a
349.976800	1.101005	dec_nonsocial_low	1.101005	16	n/a	8
349.976800	1.101005	dec_nonsocial_low_accept	1.101005	16	accept	8
355.684400	2	cue_social	n/a	32	n/a	n/a
355.684400	2	cue_social_high	n/a	32	n/a	n/a
357.627930	1.032877	dec_social_high	1.032877	32	n/a	3
357.627930	1.032877	dec_social_high_accept	1.032877	32	accept	3
363.271900	2	cue_nonsocial	n/a	16	n/a	n/a
363.271900	2	cue_nonsocial_low	n/a	16	n/a	n/a
365.278500	1.215669	dec_nonsocial_low	1.215669	16	n/a	1
365.278500	1.215669	dec_nonsocial_low_reject	1.215669	16	reject	1
370.994320	2	cue_social	n/a	32	n/a	n/a
370.994320	2	cue_social_high	n/a	32	n/a	n/a
372.927370	1.267264	dec_social_high	1.267264	32	n/a	8
372.927370	1.267264	dec_social_high_accept	1.267264	32	accept	8
