onset	duration	trial_type	response_time	Endowment	Endowment_pmod	Decision	Decision_pmod	Offer_pmod
4.515361	2	cue_nonsocial	n/a	16	-7	n/a	n/a	n/a
4.515361	2	cue_nonsocial_low	n/a	16	-8	n/a	n/a	n/a
12.258853	2	cue_social	n/a	32	8	n/a	n/a	n/a
12.258853	2	cue_social_high	n/a	32	9	n/a	n/a	n/a
19.068775	2	cue_social	n/a	32	8	n/a	n/a	n/a
19.068775	2	cue_social_high	n/a	32	9	n/a	n/a	n/a
25.831470	2	cue_nonsocial	n/a	16	-7	n/a	n/a	n/a
25.831470	2	cue_nonsocial_low	n/a	16	-8	n/a	n/a	n/a
32.727520	2	cue_social	n/a	32	8	n/a	n/a	n/a
32.727520	2	cue_social_high	n/a	32	9	n/a	n/a	n/a
40.384014	2	cue_social	n/a	16	-8	n/a	n/a	n/a
40.384014	2	cue_social_low	n/a	16	-7	n/a	n/a	n/a
47.214684	2	cue_social	n/a	32	8	n/a	n/a	n/a
47.214684	2	cue_social_high	n/a	32	9	n/a	n/a	n/a
58.014652	2	cue_nonsocial	n/a	32	9	n/a	n/a	n/a
58.014652	2	cue_nonsocial_high	n/a	32	8	n/a	n/a	n/a
64.847946	2	cue_nonsocial	n/a	16	-7	n/a	n/a	n/a
64.847946	2	cue_nonsocial_low	n/a	16	-8	n/a	n/a	n/a
72.547905	2	cue_social	n/a	32	8	n/a	n/a	n/a
72.547905	2	cue_social_high	n/a	32	9	n/a	n/a	n/a
80.131190	2	cue_nonsocial	n/a	32	9	n/a	n/a	n/a
80.131190	2	cue_nonsocial_high	n/a	32	8	n/a	n/a	n/a
89.398610	2	cue_nonsocial	n/a	32	9	n/a	n/a	n/a
89.398610	2	cue_nonsocial_high	n/a	32	8	n/a	n/a	n/a
96.231280	2	cue_nonsocial	n/a	16	-7	n/a	n/a	n/a
96.231280	2	cue_nonsocial_low	n/a	16	-8	n/a	n/a	n/a
105.481445	2	cue_nonsocial	n/a	32	9	n/a	n/a	n/a
105.481445	2	cue_nonsocial_high	n/a	32	8	n/a	n/a	n/a
114.731340	2	cue_nonsocial	n/a	16	-7	n/a	n/a	n/a
114.731340	2	cue_nonsocial_low	n/a	16	-8	n/a	n/a	n/a
121.631540	2	cue_social	n/a	16	-8	n/a	n/a	n/a
121.631540	2	cue_social_low	n/a	16	-7	n/a	n/a	n/a
128.398210	2	cue_nonsocial	n/a	16	-7	n/a	n/a	n/a
128.398210	2	cue_nonsocial_low	n/a	16	-8	n/a	n/a	n/a
135.231220	2	cue_nonsocial	n/a	32	9	n/a	n/a	n/a
135.231220	2	cue_nonsocial_high	n/a	32	8	n/a	n/a	n/a
144.570860	2	cue_social	n/a	16	-8	n/a	n/a	n/a
144.570860	2	cue_social_low	n/a	16	-7	n/a	n/a	n/a
151.314580	2	cue_nonsocial	n/a	32	9	n/a	n/a	n/a
151.314580	2	cue_nonsocial_high	n/a	32	8	n/a	n/a	n/a
158.964630	2	cue_nonsocial	n/a	16	-7	n/a	n/a	n/a
158.964630	2	cue_nonsocial_low	n/a	16	-8	n/a	n/a	n/a
171.447780	2	cue_nonsocial	n/a	16	-7	n/a	n/a	n/a
171.447780	2	cue_nonsocial_low	n/a	16	-8	n/a	n/a	n/a
178.355550	2	cue_social	n/a	16	-8	n/a	n/a	n/a
178.355550	2	cue_social_low	n/a	16	-7	n/a	n/a	n/a
187.631990	2	cue_social	n/a	16	-8	n/a	n/a	n/a
187.631990	2	cue_social_low	n/a	16	-7	n/a	n/a	n/a
194.417970	2	cue_social	n/a	16	-8	n/a	n/a	n/a
194.417970	2	cue_social_low	n/a	16	-7	n/a	n/a	n/a
201.198530	2	cue_nonsocial	n/a	32	9	n/a	n/a	n/a
201.198530	2	cue_nonsocial_high	n/a	32	8	n/a	n/a	n/a
212.139190	2	cue_social	n/a	32	8	n/a	n/a	n/a
212.139190	2	cue_social_high	n/a	32	9	n/a	n/a	n/a
219.714310	2	cue_nonsocial	n/a	32	9	n/a	n/a	n/a
219.714310	2	cue_nonsocial_high	n/a	32	8	n/a	n/a	n/a
230.668870	2	cue_social	n/a	16	-8	n/a	n/a	n/a
230.668870	2	cue_social_low	n/a	16	-7	n/a	n/a	n/a
237.414290	2	cue_nonsocial	n/a	32	9	n/a	n/a	n/a
237.414290	2	cue_nonsocial_high	n/a	32	8	n/a	n/a	n/a
245.130080	2	cue_social	n/a	32	8	n/a	n/a	n/a
245.130080	2	cue_social_high	n/a	32	9	n/a	n/a	n/a
252.714420	2	cue_nonsocial	n/a	32	9	n/a	n/a	n/a
252.714420	2	cue_nonsocial_high	n/a	32	8	n/a	n/a	n/a
259.640320	2	cue_social	n/a	32	8	n/a	n/a	n/a
259.640320	2	cue_social_high	n/a	32	9	n/a	n/a	n/a
266.437840	2	cue_social	n/a	16	-8	n/a	n/a	n/a
266.437840	2	cue_social_low	n/a	16	-7	n/a	n/a	n/a
274.099800	2	cue_social	n/a	16	-8	n/a	n/a	n/a
274.099800	2	cue_social_low	n/a	16	-7	n/a	n/a	n/a
280.864800	2	cue_nonsocial	n/a	16	-7	n/a	n/a	n/a
280.864800	2	cue_nonsocial_low	n/a	16	-8	n/a	n/a	n/a
290.145600	2	cue_social	n/a	32	8	n/a	n/a	n/a
290.145600	2	cue_social_high	n/a	32	9	n/a	n/a	n/a
297.004520	2	cue_social	n/a	32	8	n/a	n/a	n/a
297.004520	2	cue_social_high	n/a	32	9	n/a	n/a	n/a
303.781280	2	cue_nonsocial	n/a	16	-7	n/a	n/a	n/a
303.781280	2	cue_nonsocial_low	n/a	16	-8	n/a	n/a	n/a
311.430880	2	cue_nonsocial	n/a	16	-7	n/a	n/a	n/a
311.430880	2	cue_nonsocial_low	n/a	16	-8	n/a	n/a	n/a
318.361630	2	cue_social	n/a	32	8	n/a	n/a	n/a
318.361630	2	cue_social_high	n/a	32	9	n/a	n/a	n/a
325.161900	2	cue_social	n/a	16	-8	n/a	n/a	n/a
325.161900	2	cue_social_low	n/a	16	-7	n/a	n/a	n/a
332.747650	2	cue_nonsocial	n/a	16	-7	n/a	n/a	n/a
332.747650	2	cue_nonsocial_low	n/a	16	-8	n/a	n/a	n/a
339.580840	2	cue_nonsocial	n/a	16	-7	n/a	n/a	n/a
339.580840	2	cue_nonsocial_low	n/a	16	-8	n/a	n/a	n/a
346.525120	2	cue_social	n/a	16	-8	n/a	n/a	n/a
346.525120	2	cue_social_low	n/a	16	-7	n/a	n/a	n/a
355.667480	2	cue_social	n/a	32	8	n/a	n/a	n/a
355.667480	2	cue_social_high	n/a	32	9	n/a	n/a	n/a
363.399350	2	cue_social	n/a	16	-8	n/a	n/a	n/a
363.399350	2	cue_social_low	n/a	16	-7	n/a	n/a	n/a
370.147640	2	cue_nonsocial	n/a	16	-7	n/a	n/a	n/a
370.147640	2	cue_nonsocial_low	n/a	16	-8	n/a	n/a	n/a
6.521627	1.448869	dec_nonsocial_choice	1.448869	16.000000	n/a	0	0	-2.311198e-01
6.521627	1.448869	dec_choice	1.448869	16.000000	n/a	0	0	-2.330729e-01
6.521627	1.448869	dec_nonsocial_reject	1.448869	16.000000	n/a	0	0	8.928571e-03
6.521627	1.448869	dec_reject	1.448869	16.000000	n/a	0	0	0
6.521627	1.448869	dec_nonsocial_low	1.448869	16.000000	n/a	0	-2.330729e-01	-2.330729e-01
6.521627	1.448869	dec_nonsocial_reject_low	1.448869	16.000000	n/a	2	0	-1.250000e-01
14.171073	1.049490	dec_social_choice	1.049490	32.000000	n/a	3	-1.373698e-01	-1.373698e-01
14.171073	1.049490	dec_choice	1.049490	32.000000	n/a	3	-1.354167e-01	-1.354167e-01
14.171073	1.049490	dec_social_accept	1.049490	32.000000	n/a	3	-1.570122e-01	-1.570122e-01
14.171073	1.049490	dec_accept	1.049490	32.000000	n/a	3	-1.593750e-01	-1.593750e-01
14.171073	1.049490	dec_social_accept_low	1.049490	32.000000	n/a	3	-1.354167e-01	-1.354167e-01
21.003874	1.217065	dec_social_choice	1.217065	32.000000	n/a	0	0	-2.311198e-01
21.003874	1.217065	dec_choice	1.217065	32.000000	n/a	0	0	-2.291667e-01
21.003874	1.217065	dec_social_reject	1.217065	32.000000	n/a	0	0	-5.357143e-02
21.003874	1.217065	dec_reject	1.217065	32.000000	n/a	0	0	-4.687500e-02
21.003874	1.217065	dec_social_reject_low	1.217065	32.000000	n/a	2	-1.666667e-01	-2.291667e-01
27.836864	1.033184	dec_nonsocial_choice	1.033184	16.000000	n/a	0	0	-2.311198e-01
27.836864	1.033184	dec_choice	1.033184	16.000000	n/a	0	0	-2.330729e-01
27.836864	1.033184	dec_nonsocial_reject	1.033184	16.000000	n/a	0	0	8.928571e-03
27.836864	1.033184	dec_reject	1.033184	16.000000	n/a	0	0	0
27.836864	1.033184	dec_nonsocial_low	1.033184	16.000000	n/a	0	-2.330729e-01	-2.330729e-01
27.836864	1.033184	dec_nonsocial_reject_low	1.033184	16.000000	n/a	2	0	-1.250000e-01
34.670350	0.800225	dec_social_choice	0.800225	32.000000	n/a	2	-1.686198e-01	-1.686198e-01
34.670350	0.800225	dec_choice	0.800225	32.000000	n/a	2	-1.666667e-01	-1.666667e-01
34.670350	0.800225	dec_social_accept	0.800225	32.000000	n/a	2	-1.882622e-01	-1.882622e-01
34.670350	0.800225	dec_accept	0.800225	32.000000	n/a	2	-1.906250e-01	-1.906250e-01
34.670350	0.800225	dec_social_accept_low	0.800225	32.000000	n/a	2	-1.666667e-01	-1.666667e-01
42.320408	0.733478	dec_social_choice	0.733478	16.000000	n/a	0	0	-2.311198e-01
42.320408	0.733478	dec_choice	0.733478	16.000000	n/a	0	0	-2.291667e-01
42.320408	0.733478	dec_social_reject	0.733478	16.000000	n/a	0	0	-5.357143e-02
42.320408	0.733478	dec_reject	0.733478	16.000000	n/a	0	0	-4.687500e-02
42.320408	0.733478	dec_social_reject_low	0.733478	16.000000	n/a	1	-1.666667e-01	-2.291667e-01
49.153470	0.617491	dec_social_choice	0.617491	32.000000	n/a	0	0	-2.311198e-01
49.153470	0.617491	dec_choice	0.617491	32.000000	n/a	0	0	-2.291667e-01
49.153470	0.617491	dec_social_reject	0.617491	32.000000	n/a	0	0	1.339286e-01
49.153470	0.617491	dec_reject	0.617491	32.000000	n/a	0	0	1.406250e-01
49.153470	0.617491	dec_social_low	0.617491	32.000000	n/a	0	-2.291667e-01	-2.291667e-01
49.153470	0.617491	dec_social_reject_low	0.617491	32.000000	n/a	8	2.083333e-02	-2.291667e-01
60.020767	0.815995	dec_nonsocial_choice	0.815995	32.000000	n/a	8	1.888021e-02	1.888021e-02
60.020767	0.815995	dec_choice	0.815995	32.000000	n/a	8	1.692708e-02	1.692708e-02
60.020767	0.815995	dec_nonsocial_accept	0.815995	32.000000	n/a	8	-7.621951e-04	-7.621951e-04
60.020767	0.815995	dec_accept	0.815995	32.000000	n/a	8	1.488095e-03	1.488095e-03
60.020767	0.815995	dec_nonsocial_accept_high	0.815995	32.000000	n/a	8	-3.125000e-03	-3.125000e-03
66.853800	0.916651	dec_nonsocial_choice	0.916651	16.000000	n/a	0	0	-2.311198e-01
66.853800	0.916651	dec_choice	0.916651	16.000000	n/a	0	0	-2.330729e-01
66.853800	0.916651	dec_nonsocial_reject	0.916651	16.000000	n/a	0	0	8.928571e-03
66.853800	0.916651	dec_reject	0.916651	16.000000	n/a	0	0	0
66.853800	0.916651	dec_nonsocial_reject_low	0.916651	16.000000	n/a	2	1.562500e-02	-1.093750e-01
74.488396	0.714714	dec_social_choice	0.714714	32.000000	n/a	16	2.688802e-01	2.688802e-01
74.488396	0.714714	dec_choice	0.714714	32.000000	n/a	16	2.708333e-01	2.708333e-01
74.488396	0.714714	dec_social_accept	0.714714	32.000000	n/a	16	2.492378e-01	2.492378e-01
74.488396	0.714714	dec_accept	0.714714	32.000000	n/a	16	2.468750e-01	2.468750e-01
74.488396	0.714714	dec_social_accept_high	0.714714	32.000000	n/a	16	2.708333e-01	2.708333e-01
82.137880	0.782035	dec_nonsocial_choice	0.782035	32.000000	n/a	16	2.688802e-01	2.688802e-01
82.137880	0.782035	dec_choice	0.782035	32.000000	n/a	16	2.669271e-01	2.669271e-01
82.137880	0.782035	dec_nonsocial_accept	0.782035	32.000000	n/a	16	2.492378e-01	2.492378e-01
82.137880	0.782035	dec_accept	0.782035	32.000000	n/a	16	2.514881e-01	2.514881e-01
82.137880	0.782035	dec_nonsocial_accept_high	0.782035	32.000000	n/a	16	2.468750e-01	2.468750e-01
91.404945	1.182059	dec_nonsocial_choice	1.182059	32.000000	n/a	3	-1.373698e-01	-1.373698e-01
91.404945	1.182059	dec_choice	1.182059	32.000000	n/a	3	-1.393229e-01	-1.393229e-01
91.404945	1.182059	dec_nonsocial_accept	1.182059	32.000000	n/a	3	-1.570122e-01	-1.570122e-01
91.404945	1.182059	dec_accept	1.182059	32.000000	n/a	3	-1.547619e-01	-1.547619e-01
91.404945	1.182059	dec_nonsocial_low	1.182059	32.000000	n/a	3	-1.393229e-01	-1.393229e-01
91.404945	1.182059	dec_nonsocial_accept_low	1.182059	32.000000	n/a	3	-1.547619e-01	-1.547619e-01
98.237175	1.149910	dec_nonsocial_choice	1.149910	16.000000	n/a	4	1.888021e-02	1.888021e-02
98.237175	1.149910	dec_choice	1.149910	16.000000	n/a	4	1.692708e-02	1.692708e-02
98.237175	1.149910	dec_nonsocial_accept	1.149910	16.000000	n/a	4	-7.621951e-04	-7.621951e-04
98.237175	1.149910	dec_accept	1.149910	16.000000	n/a	4	1.488095e-03	1.488095e-03
98.237175	1.149910	dec_nonsocial_high	1.149910	16.000000	n/a	4	1.692708e-02	1.692708e-02
98.237175	1.149910	dec_nonsocial_accept_high	1.149910	16.000000	n/a	4	1.488095e-03	1.488095e-03
107.486740	1.350201	dec_nonsocial_choice	1.350201	32.000000	n/a	16	2.688802e-01	2.688802e-01
107.486740	1.350201	dec_choice	1.350201	32.000000	n/a	16	2.669271e-01	2.669271e-01
107.486740	1.350201	dec_nonsocial_accept	1.350201	32.000000	n/a	16	2.492378e-01	2.492378e-01
107.486740	1.350201	dec_accept	1.350201	32.000000	n/a	16	2.514881e-01	2.514881e-01
107.486740	1.350201	dec_nonsocial_high	1.350201	32.000000	n/a	16	2.669271e-01	2.669271e-01
107.486740	1.350201	dec_nonsocial_accept_high	1.350201	32.000000	n/a	16	2.514881e-01	2.514881e-01
116.737206	1.599765	dec_nonsocial_choice	1.599765	16.000000	n/a	8	2.688802e-01	2.688802e-01
116.737206	1.599765	dec_choice	1.599765	16.000000	n/a	8	2.669271e-01	2.669271e-01
116.737206	1.599765	dec_nonsocial_accept	1.599765	16.000000	n/a	8	2.492378e-01	2.492378e-01
116.737206	1.599765	dec_accept	1.599765	16.000000	n/a	8	2.514881e-01	2.514881e-01
116.737206	1.599765	dec_nonsocial_accept_high	1.599765	16.000000	n/a	8	2.468750e-01	2.468750e-01
123.570000	1.233701	dec_social_choice	1.233701	16.000000	n/a	2	-1.061198e-01	-1.061198e-01
123.570000	1.233701	dec_choice	1.233701	16.000000	n/a	2	-1.041667e-01	-1.041667e-01
123.570000	1.233701	dec_social_accept	1.233701	16.000000	n/a	2	-1.257622e-01	-1.257622e-01
123.570000	1.233701	dec_accept	1.233701	16.000000	n/a	2	-1.281250e-01	-1.281250e-01
123.570000	1.233701	dec_social_accept_low	1.233701	16.000000	n/a	2	-1.041667e-01	-1.041667e-01
130.403880	1.616325	dec_nonsocial_choice	1.616325	16.000000	n/a	8	2.688802e-01	2.688802e-01
130.403880	1.616325	dec_choice	1.616325	16.000000	n/a	8	2.669271e-01	2.669271e-01
130.403880	1.616325	dec_nonsocial_accept	1.616325	16.000000	n/a	8	2.492378e-01	2.492378e-01
130.403880	1.616325	dec_accept	1.616325	16.000000	n/a	8	2.514881e-01	2.514881e-01
130.403880	1.616325	dec_nonsocial_high	1.616325	16.000000	n/a	8	2.669271e-01	2.669271e-01
130.403880	1.616325	dec_nonsocial_accept_high	1.616325	16.000000	n/a	8	2.514881e-01	2.514881e-01
137.237370	1.250103	dec_nonsocial_choice	1.250103	32.000000	n/a	2	-1.686198e-01	-1.686198e-01
137.237370	1.250103	dec_choice	1.250103	32.000000	n/a	2	-1.705729e-01	-1.705729e-01
137.237370	1.250103	dec_nonsocial_accept	1.250103	32.000000	n/a	2	-1.882622e-01	-1.882622e-01
137.237370	1.250103	dec_accept	1.250103	32.000000	n/a	2	-1.860119e-01	-1.860119e-01
137.237370	1.250103	dec_nonsocial_low	1.250103	32.000000	n/a	2	-1.705729e-01	-1.705729e-01
137.237370	1.250103	dec_nonsocial_accept_low	1.250103	32.000000	n/a	2	-1.860119e-01	-1.860119e-01
146.487440	0.966364	dec_social_choice	0.966364	16.000000	n/a	0	0	-2.311198e-01
146.487440	0.966364	dec_choice	0.966364	16.000000	n/a	0	0	-2.291667e-01
146.487440	0.966364	dec_social_reject	0.966364	16.000000	n/a	0	0	-5.357143e-02
146.487440	0.966364	dec_reject	0.966364	16.000000	n/a	0	0	-4.687500e-02
146.487440	0.966364	dec_social_low	0.966364	16.000000	n/a	0	-2.291667e-01	-2.291667e-01
146.487440	0.966364	dec_social_reject_low	0.966364	16.000000	n/a	1	-1.666667e-01	-2.291667e-01
153.319850	1.066154	dec_nonsocial_choice	1.066154	32.000000	n/a	16	2.688802e-01	2.688802e-01
153.319850	1.066154	dec_choice	1.066154	32.000000	n/a	16	2.669271e-01	2.669271e-01
153.319850	1.066154	dec_nonsocial_accept	1.066154	32.000000	n/a	16	2.492378e-01	2.492378e-01
153.319850	1.066154	dec_accept	1.066154	32.000000	n/a	16	2.514881e-01	2.514881e-01
153.319850	1.066154	dec_nonsocial_high	1.066154	32.000000	n/a	16	2.669271e-01	2.669271e-01
153.319850	1.066154	dec_nonsocial_accept_high	1.066154	32.000000	n/a	16	2.514881e-01	2.514881e-01
160.970670	1.065710	dec_nonsocial_choice	1.065710	16.000000	n/a	4	1.888021e-02	1.888021e-02
160.970670	1.065710	dec_choice	1.065710	16.000000	n/a	4	1.692708e-02	1.692708e-02
160.970670	1.065710	dec_nonsocial_accept	1.065710	16.000000	n/a	4	-7.621951e-04	-7.621951e-04
160.970670	1.065710	dec_accept	1.065710	16.000000	n/a	4	1.488095e-03	1.488095e-03
160.970670	1.065710	dec_nonsocial_accept_high	1.065710	16.000000	n/a	4	-3.125000e-03	-3.125000e-03
173.453160	0.751246	dec_nonsocial_choice	0.751246	16.000000	n/a	2	-1.061198e-01	-1.061198e-01
173.453160	0.751246	dec_choice	0.751246	16.000000	n/a	2	-1.080729e-01	-1.080729e-01
173.453160	0.751246	dec_nonsocial_accept	0.751246	16.000000	n/a	2	-1.257622e-01	-1.257622e-01
173.453160	0.751246	dec_accept	0.751246	16.000000	n/a	2	-1.235119e-01	-1.235119e-01
173.453160	0.751246	dec_nonsocial_accept_low	0.751246	16.000000	n/a	2	-1.281250e-01	-1.281250e-01
180.285980	0.783636	dec_social_choice	0.783636	16.000000	n/a	1	-1.686198e-01	-1.686198e-01
180.285980	0.783636	dec_choice	0.783636	16.000000	n/a	1	-1.666667e-01	-1.666667e-01
180.285980	0.783636	dec_social_accept	0.783636	16.000000	n/a	1	-1.882622e-01	-1.882622e-01
180.285980	0.783636	dec_accept	0.783636	16.000000	n/a	1	-1.906250e-01	-1.906250e-01
180.285980	0.783636	dec_social_accept_low	0.783636	16.000000	n/a	1	-1.666667e-01	-1.666667e-01
189.536710	0.766360	dec_social_choice	0.766360	16.000000	n/a	4	1.888021e-02	1.888021e-02
189.536710	0.766360	dec_choice	0.766360	16.000000	n/a	4	2.083333e-02	2.083333e-02
189.536710	0.766360	dec_social_accept	0.766360	16.000000	n/a	4	-7.621951e-04	-7.621951e-04
189.536710	0.766360	dec_accept	0.766360	16.000000	n/a	4	-3.125000e-03	-3.125000e-03
189.536710	0.766360	dec_social_high	0.766360	16.000000	n/a	4	2.083333e-02	2.083333e-02
189.536710	0.766360	dec_social_accept_high	0.766360	16.000000	n/a	4	2.083333e-02	2.083333e-02
196.370100	0.866124	dec_social_choice	0.866124	16.000000	n/a	4	1.888021e-02	1.888021e-02
196.370100	0.866124	dec_choice	0.866124	16.000000	n/a	4	2.083333e-02	2.083333e-02
196.370100	0.866124	dec_social_accept	0.866124	16.000000	n/a	4	-7.621951e-04	-7.621951e-04
196.370100	0.866124	dec_accept	0.866124	16.000000	n/a	4	-3.125000e-03	-3.125000e-03
196.370100	0.866124	dec_social_high	0.866124	16.000000	n/a	4	2.083333e-02	2.083333e-02
196.370100	0.866124	dec_social_accept_high	0.866124	16.000000	n/a	4	2.083333e-02	2.083333e-02
203.203490	1.083403	dec_nonsocial_choice	1.083403	32.000000	n/a	2	-1.686198e-01	-1.686198e-01
203.203490	1.083403	dec_choice	1.083403	32.000000	n/a	2	-1.705729e-01	-1.705729e-01
203.203490	1.083403	dec_nonsocial_accept	1.083403	32.000000	n/a	2	-1.882622e-01	-1.882622e-01
203.203490	1.083403	dec_accept	1.083403	32.000000	n/a	2	-1.860119e-01	-1.860119e-01
203.203490	1.083403	dec_nonsocial_low	1.083403	32.000000	n/a	2	-1.705729e-01	-1.705729e-01
203.203490	1.083403	dec_nonsocial_accept_low	1.083403	32.000000	n/a	2	-1.860119e-01	-1.860119e-01
214.070050	1.282816	dec_social_choice	1.282816	32.000000	n/a	3	-1.373698e-01	-1.373698e-01
214.070050	1.282816	dec_choice	1.282816	32.000000	n/a	3	-1.354167e-01	-1.354167e-01
214.070050	1.282816	dec_social_accept	1.282816	32.000000	n/a	3	-1.570122e-01	-1.570122e-01
214.070050	1.282816	dec_accept	1.282816	32.000000	n/a	3	-1.593750e-01	-1.593750e-01
214.070050	1.282816	dec_social_low	1.282816	32.000000	n/a	3	-1.354167e-01	-1.354167e-01
214.070050	1.282816	dec_social_accept_low	1.282816	32.000000	n/a	3	-1.354167e-01	-1.354167e-01
221.719900	1.433885	dec_nonsocial_choice	1.433885	32.000000	n/a	2	-1.686198e-01	-1.686198e-01
221.719900	1.433885	dec_choice	1.433885	32.000000	n/a	2	-1.705729e-01	-1.705729e-01
221.719900	1.433885	dec_nonsocial_accept	1.433885	32.000000	n/a	2	-1.882622e-01	-1.882622e-01
221.719900	1.433885	dec_accept	1.433885	32.000000	n/a	2	-1.860119e-01	-1.860119e-01
221.719900	1.433885	dec_nonsocial_accept_low	1.433885	32.000000	n/a	2	-1.906250e-01	-1.906250e-01
232.586460	1.233655	dec_social_choice	1.233655	16.000000	n/a	8	2.688802e-01	2.688802e-01
232.586460	1.233655	dec_choice	1.233655	16.000000	n/a	8	2.708333e-01	2.708333e-01
232.586460	1.233655	dec_social_accept	1.233655	16.000000	n/a	8	2.492378e-01	2.492378e-01
232.586460	1.233655	dec_accept	1.233655	16.000000	n/a	8	2.468750e-01	2.468750e-01
232.586460	1.233655	dec_social_high	1.233655	16.000000	n/a	8	2.708333e-01	2.708333e-01
232.586460	1.233655	dec_social_accept_high	1.233655	16.000000	n/a	8	2.708333e-01	2.708333e-01
239.420180	1.099991	dec_nonsocial_choice	1.099991	32.000000	n/a	2	-1.686198e-01	-1.686198e-01
239.420180	1.099991	dec_choice	1.099991	32.000000	n/a	2	-1.705729e-01	-1.705729e-01
239.420180	1.099991	dec_nonsocial_accept	1.099991	32.000000	n/a	2	-1.882622e-01	-1.882622e-01
239.420180	1.099991	dec_accept	1.099991	32.000000	n/a	2	-1.860119e-01	-1.860119e-01
239.420180	1.099991	dec_nonsocial_accept_low	1.099991	32.000000	n/a	2	-1.906250e-01	-1.906250e-01
247.071150	1.082368	dec_social_choice	1.082368	32.000000	n/a	16	2.688802e-01	2.688802e-01
247.071150	1.082368	dec_choice	1.082368	32.000000	n/a	16	2.708333e-01	2.708333e-01
247.071150	1.082368	dec_social_accept	1.082368	32.000000	n/a	16	2.492378e-01	2.492378e-01
247.071150	1.082368	dec_accept	1.082368	32.000000	n/a	16	2.468750e-01	2.468750e-01
247.071150	1.082368	dec_social_high	1.082368	32.000000	n/a	16	2.708333e-01	2.708333e-01
247.071150	1.082368	dec_social_accept_high	1.082368	32.000000	n/a	16	2.708333e-01	2.708333e-01
254.720900	1.082609	dec_nonsocial_choice	1.082609	32.000000	n/a	2	-1.686198e-01	-1.686198e-01
254.720900	1.082609	dec_choice	1.082609	32.000000	n/a	2	-1.705729e-01	-1.705729e-01
254.720900	1.082609	dec_nonsocial_accept	1.082609	32.000000	n/a	2	-1.882622e-01	-1.882622e-01
254.720900	1.082609	dec_accept	1.082609	32.000000	n/a	2	-1.860119e-01	-1.860119e-01
254.720900	1.082609	dec_nonsocial_low	1.082609	32.000000	n/a	2	-1.705729e-01	-1.705729e-01
254.720900	1.082609	dec_nonsocial_accept_low	1.082609	32.000000	n/a	2	-1.860119e-01	-1.860119e-01
261.553860	1.566253	dec_social_choice	1.566253	32.000000	n/a	3	-1.373698e-01	-1.373698e-01
261.553860	1.566253	dec_choice	1.566253	32.000000	n/a	3	-1.354167e-01	-1.354167e-01
261.553860	1.566253	dec_social_accept	1.566253	32.000000	n/a	3	-1.570122e-01	-1.570122e-01
261.553860	1.566253	dec_accept	1.566253	32.000000	n/a	3	-1.593750e-01	-1.593750e-01
261.553860	1.566253	dec_social_accept_low	1.566253	32.000000	n/a	3	-1.354167e-01	-1.354167e-01
268.386960	1.016066	dec_social_choice	1.016066	16.000000	n/a	4	1.888021e-02	1.888021e-02
268.386960	1.016066	dec_choice	1.016066	16.000000	n/a	4	2.083333e-02	2.083333e-02
268.386960	1.016066	dec_social_accept	1.016066	16.000000	n/a	4	-7.621951e-04	-7.621951e-04
268.386960	1.016066	dec_accept	1.016066	16.000000	n/a	4	-3.125000e-03	-3.125000e-03
268.386960	1.016066	dec_social_accept_high	1.016066	16.000000	n/a	4	2.083333e-02	2.083333e-02
276.037660	1.148734	dec_social_choice	1.148734	16.000000	n/a	1	-1.686198e-01	-1.686198e-01
276.037660	1.148734	dec_choice	1.148734	16.000000	n/a	1	-1.666667e-01	-1.666667e-01
276.037660	1.148734	dec_social_accept	1.148734	16.000000	n/a	1	-1.882622e-01	-1.882622e-01
276.037660	1.148734	dec_accept	1.148734	16.000000	n/a	1	-1.906250e-01	-1.906250e-01
276.037660	1.148734	dec_social_accept_low	1.148734	16.000000	n/a	1	-1.666667e-01	-1.666667e-01
282.870100	1.516667	dec_nonsocial_choice	1.516667	16.000000	n/a	4	1.888021e-02	1.888021e-02
282.870100	1.516667	dec_choice	1.516667	16.000000	n/a	4	1.692708e-02	1.692708e-02
282.870100	1.516667	dec_nonsocial_accept	1.516667	16.000000	n/a	4	-7.621951e-04	-7.621951e-04
282.870100	1.516667	dec_accept	1.516667	16.000000	n/a	4	1.488095e-03	1.488095e-03
282.870100	1.516667	dec_nonsocial_high	1.516667	16.000000	n/a	4	1.692708e-02	1.692708e-02
282.870100	1.516667	dec_nonsocial_accept_high	1.516667	16.000000	n/a	4	1.488095e-03	1.488095e-03
292.119050	1.101185	dec_social_choice	1.101185	32.000000	n/a	8	1.888021e-02	1.888021e-02
292.119050	1.101185	dec_choice	1.101185	32.000000	n/a	8	2.083333e-02	2.083333e-02
292.119050	1.101185	dec_social_accept	1.101185	32.000000	n/a	8	-7.621951e-04	-7.621951e-04
292.119050	1.101185	dec_accept	1.101185	32.000000	n/a	8	-3.125000e-03	-3.125000e-03
292.119050	1.101185	dec_social_high	1.101185	32.000000	n/a	8	2.083333e-02	2.083333e-02
292.119050	1.101185	dec_social_accept_high	1.101185	32.000000	n/a	8	2.083333e-02	2.083333e-02
298.953000	0.950244	dec_social_choice	0.950244	32.000000	n/a	16	2.688802e-01	2.688802e-01
298.953000	0.950244	dec_choice	0.950244	32.000000	n/a	16	2.708333e-01	2.708333e-01
298.953000	0.950244	dec_social_accept	0.950244	32.000000	n/a	16	2.492378e-01	2.492378e-01
298.953000	0.950244	dec_accept	0.950244	32.000000	n/a	16	2.468750e-01	2.468750e-01
298.953000	0.950244	dec_social_high	0.950244	32.000000	n/a	16	2.708333e-01	2.708333e-01
298.953000	0.950244	dec_social_accept_high	0.950244	32.000000	n/a	16	2.708333e-01	2.708333e-01
305.787450	1.232487	dec_nonsocial_choice	1.232487	16.000000	n/a	4	1.888021e-02	1.888021e-02
305.787450	1.232487	dec_choice	1.232487	16.000000	n/a	4	1.692708e-02	1.692708e-02
305.787450	1.232487	dec_nonsocial_accept	1.232487	16.000000	n/a	4	-7.621951e-04	-7.621951e-04
305.787450	1.232487	dec_accept	1.232487	16.000000	n/a	4	1.488095e-03	1.488095e-03
305.787450	1.232487	dec_nonsocial_accept_high	1.232487	16.000000	n/a	4	-3.125000e-03	-3.125000e-03
313.436950	0.915860	dec_nonsocial_choice	0.915860	16.000000	n/a	2	-1.061198e-01	-1.061198e-01
313.436950	0.915860	dec_choice	0.915860	16.000000	n/a	2	-1.080729e-01	-1.080729e-01
313.436950	0.915860	dec_nonsocial_accept	0.915860	16.000000	n/a	2	-1.257622e-01	-1.257622e-01
313.436950	0.915860	dec_accept	0.915860	16.000000	n/a	2	-1.235119e-01	-1.235119e-01
313.436950	0.915860	dec_nonsocial_low	0.915860	16.000000	n/a	2	-1.080729e-01	-1.080729e-01
313.436950	0.915860	dec_nonsocial_accept_low	0.915860	16.000000	n/a	2	-1.235119e-01	-1.235119e-01
320.270000	1.016341	dec_social_choice	1.016341	32.000000	n/a	16	2.688802e-01	2.688802e-01
320.270000	1.016341	dec_choice	1.016341	32.000000	n/a	16	2.708333e-01	2.708333e-01
320.270000	1.016341	dec_social_accept	1.016341	32.000000	n/a	16	2.492378e-01	2.492378e-01
320.270000	1.016341	dec_accept	1.016341	32.000000	n/a	16	2.468750e-01	2.468750e-01
320.270000	1.016341	dec_social_high	1.016341	32.000000	n/a	16	2.708333e-01	2.708333e-01
320.270000	1.016341	dec_social_accept_high	1.016341	32.000000	n/a	16	2.708333e-01	2.708333e-01
327.104130	0.982540	dec_social_choice	0.982540	16.000000	n/a	2	-1.061198e-01	-1.061198e-01
327.104130	0.982540	dec_choice	0.982540	16.000000	n/a	2	-1.041667e-01	-1.041667e-01
327.104130	0.982540	dec_social_accept	0.982540	16.000000	n/a	2	-1.257622e-01	-1.257622e-01
327.104130	0.982540	dec_accept	0.982540	16.000000	n/a	2	-1.281250e-01	-1.281250e-01
327.104130	0.982540	dec_social_low	0.982540	16.000000	n/a	2	-1.041667e-01	-1.041667e-01
327.104130	0.982540	dec_social_accept_low	0.982540	16.000000	n/a	2	-1.041667e-01	-1.041667e-01
334.753080	1.133943	dec_nonsocial_choice	1.133943	16.000000	n/a	1	-1.686198e-01	-1.686198e-01
334.753080	1.133943	dec_choice	1.133943	16.000000	n/a	1	-1.705729e-01	-1.705729e-01
334.753080	1.133943	dec_nonsocial_accept	1.133943	16.000000	n/a	1	-1.882622e-01	-1.882622e-01
334.753080	1.133943	dec_accept	1.133943	16.000000	n/a	1	-1.860119e-01	-1.860119e-01
334.753080	1.133943	dec_nonsocial_low	1.133943	16.000000	n/a	1	-1.705729e-01	-1.705729e-01
334.753080	1.133943	dec_nonsocial_accept_low	1.133943	16.000000	n/a	1	-1.860119e-01	-1.860119e-01
341.587040	1.282871	dec_nonsocial_choice	1.282871	16.000000	n/a	4	1.888021e-02	1.888021e-02
341.587040	1.282871	dec_choice	1.282871	16.000000	n/a	4	1.692708e-02	1.692708e-02
341.587040	1.282871	dec_nonsocial_accept	1.282871	16.000000	n/a	4	-7.621951e-04	-7.621951e-04
341.587040	1.282871	dec_accept	1.282871	16.000000	n/a	4	1.488095e-03	1.488095e-03
341.587040	1.282871	dec_nonsocial_high	1.282871	16.000000	n/a	4	1.692708e-02	1.692708e-02
341.587040	1.282871	dec_nonsocial_accept_high	1.282871	16.000000	n/a	4	1.488095e-03	1.488095e-03
348.419220	1.000717	dec_social_choice	1.000717	16.000000	n/a	4	1.888021e-02	1.888021e-02
348.419220	1.000717	dec_choice	1.000717	16.000000	n/a	4	2.083333e-02	2.083333e-02
348.419220	1.000717	dec_social_accept	1.000717	16.000000	n/a	4	-7.621951e-04	-7.621951e-04
348.419220	1.000717	dec_accept	1.000717	16.000000	n/a	4	-3.125000e-03	-3.125000e-03
348.419220	1.000717	dec_social_high	1.000717	16.000000	n/a	4	2.083333e-02	2.083333e-02
348.419220	1.000717	dec_social_accept_high	1.000717	16.000000	n/a	4	2.083333e-02	2.083333e-02
357.669070	1.066999	dec_social_choice	1.066999	32.000000	n/a	3	-1.373698e-01	-1.373698e-01
357.669070	1.066999	dec_choice	1.066999	32.000000	n/a	3	-1.354167e-01	-1.354167e-01
357.669070	1.066999	dec_social_accept	1.066999	32.000000	n/a	3	-1.570122e-01	-1.570122e-01
357.669070	1.066999	dec_accept	1.066999	32.000000	n/a	3	-1.593750e-01	-1.593750e-01
357.669070	1.066999	dec_social_low	1.066999	32.000000	n/a	3	-1.354167e-01	-1.354167e-01
357.669070	1.066999	dec_social_accept_low	1.066999	32.000000	n/a	3	-1.354167e-01	-1.354167e-01
365.318940	0.967638	dec_social_choice	0.967638	16.000000	n/a	8	2.688802e-01	2.688802e-01
365.318940	0.967638	dec_choice	0.967638	16.000000	n/a	8	2.708333e-01	2.708333e-01
365.318940	0.967638	dec_social_accept	0.967638	16.000000	n/a	8	2.492378e-01	2.492378e-01
365.318940	0.967638	dec_accept	0.967638	16.000000	n/a	8	2.468750e-01	2.468750e-01
365.318940	0.967638	dec_social_high	0.967638	16.000000	n/a	8	2.708333e-01	2.708333e-01
365.318940	0.967638	dec_social_accept_high	0.967638	16.000000	n/a	8	2.708333e-01	2.708333e-01
372.153100	0.966207	dec_nonsocial_choice	0.966207	16.000000	n/a	8	2.688802e-01	2.688802e-01
372.153100	0.966207	dec_choice	0.966207	16.000000	n/a	8	2.669271e-01	2.669271e-01
372.153100	0.966207	dec_nonsocial_accept	0.966207	16.000000	n/a	8	2.492378e-01	2.492378e-01
372.153100	0.966207	dec_accept	0.966207	16.000000	n/a	8	2.514881e-01	2.514881e-01
372.153100	0.966207	dec_nonsocial_high	0.966207	16.000000	n/a	8	2.669271e-01	2.669271e-01
372.153100	0.966207	dec_nonsocial_accept_high	0.966207	16.000000	n/a	8	2.514881e-01	2.514881e-01
