onset	duration	trial_type	response_time	Endowment	Endowment_pmod	Decision	Decision_pmod	Offer_pmod
4.519202	2	cue_nonsocial	n/a	16	-7	n/a	n/a	n/a
4.519202	2	cue_nonsocial_low	n/a	16	-7	n/a	n/a	n/a
11.352452	2	cue_nonsocial	n/a	32	9	n/a	n/a	n/a
11.352452	2	cue_nonsocial_high	n/a	32	9	n/a	n/a	n/a
18.298840	2	cue_social	n/a	32	9	n/a	n/a	n/a
18.298840	2	cue_social_high	n/a	32	9	n/a	n/a	n/a
27.448840	2	cue_social	n/a	16	-7	n/a	n/a	n/a
27.448840	2	cue_social_low	n/a	16	-7	n/a	n/a	n/a
34.270164	2	cue_nonsocial	n/a	32	9	n/a	n/a	n/a
34.270164	2	cue_nonsocial_high	n/a	32	9	n/a	n/a	n/a
41.102300	2	cue_social	n/a	16	-7	n/a	n/a	n/a
41.102300	2	cue_social_low	n/a	16	-7	n/a	n/a	n/a
47.932106	2	cue_social	n/a	16	-7	n/a	n/a	n/a
47.932106	2	cue_social_low	n/a	16	-7	n/a	n/a	n/a
54.769516	2	cue_nonsocial	n/a	16	-7	n/a	n/a	n/a
54.769516	2	cue_nonsocial_low	n/a	16	-7	n/a	n/a	n/a
62.535065	2	cue_social	n/a	32	9	n/a	n/a	n/a
62.535065	2	cue_social_high	n/a	32	9	n/a	n/a	n/a
70.184044	2	cue_social	n/a	16	-7	n/a	n/a	n/a
70.184044	2	cue_social_low	n/a	16	-7	n/a	n/a	n/a
76.903290	2	cue_nonsocial	n/a	32	9	n/a	n/a	n/a
76.903290	2	cue_nonsocial_high	n/a	32	9	n/a	n/a	n/a
83.736040	2	cue_nonsocial	n/a	16	-7	n/a	n/a	n/a
83.736040	2	cue_nonsocial_low	n/a	16	-7	n/a	n/a	n/a
91.385790	2	cue_nonsocial	n/a	32	9	n/a	n/a	n/a
91.385790	2	cue_nonsocial_high	n/a	32	9	n/a	n/a	n/a
99.036290	2	cue_nonsocial	n/a	16	-7	n/a	n/a	n/a
99.036290	2	cue_nonsocial_low	n/a	16	-7	n/a	n/a	n/a
105.869270	2	cue_nonsocial	n/a	16	-7	n/a	n/a	n/a
105.869270	2	cue_nonsocial_low	n/a	16	-7	n/a	n/a	n/a
113.519210	2	cue_nonsocial	n/a	32	9	n/a	n/a	n/a
113.519210	2	cue_nonsocial_high	n/a	32	9	n/a	n/a	n/a
122.887140	2	cue_social	n/a	16	-7	n/a	n/a	n/a
122.887140	2	cue_social_low	n/a	16	-7	n/a	n/a	n/a
135.269400	2	cue_nonsocial	n/a	16	-7	n/a	n/a	n/a
135.269400	2	cue_nonsocial_low	n/a	16	-7	n/a	n/a	n/a
144.654600	2	cue_social	n/a	16	-7	n/a	n/a	n/a
144.654600	2	cue_social_low	n/a	16	-7	n/a	n/a	n/a
155.403950	2	cue_nonsocial	n/a	16	-7	n/a	n/a	n/a
155.403950	2	cue_nonsocial_low	n/a	16	-7	n/a	n/a	n/a
166.378510	2	cue_social	n/a	32	9	n/a	n/a	n/a
166.378510	2	cue_social_high	n/a	32	9	n/a	n/a	n/a
174.056980	2	cue_social	n/a	32	9	n/a	n/a	n/a
174.056980	2	cue_social_high	n/a	32	9	n/a	n/a	n/a
183.297710	2	cue_social	n/a	32	9	n/a	n/a	n/a
183.297710	2	cue_social_high	n/a	32	9	n/a	n/a	n/a
190.002350	2	cue_nonsocial	n/a	16	-7	n/a	n/a	n/a
190.002350	2	cue_nonsocial_low	n/a	16	-7	n/a	n/a	n/a
197.743500	2	cue_social	n/a	16	-7	n/a	n/a	n/a
197.743500	2	cue_social_low	n/a	16	-7	n/a	n/a	n/a
205.405100	2	cue_social	n/a	16	-7	n/a	n/a	n/a
205.405100	2	cue_social_low	n/a	16	-7	n/a	n/a	n/a
212.122790	2	cue_social	n/a	32	9	n/a	n/a	n/a
212.122790	2	cue_social_high	n/a	32	9	n/a	n/a	n/a
219.871930	2	cue_social	n/a	16	-7	n/a	n/a	n/a
219.871930	2	cue_social_low	n/a	16	-7	n/a	n/a	n/a
229.085900	2	cue_social	n/a	32	9	n/a	n/a	n/a
229.085900	2	cue_social_high	n/a	32	9	n/a	n/a	n/a
235.852130	2	cue_nonsocial	n/a	16	-7	n/a	n/a	n/a
235.852130	2	cue_nonsocial_low	n/a	16	-7	n/a	n/a	n/a
245.118530	2	cue_nonsocial	n/a	32	9	n/a	n/a	n/a
245.118530	2	cue_nonsocial_high	n/a	32	9	n/a	n/a	n/a
252.064540	2	cue_social	n/a	32	9	n/a	n/a	n/a
252.064540	2	cue_social_high	n/a	32	9	n/a	n/a	n/a
258.865750	2	cue_social	n/a	32	9	n/a	n/a	n/a
258.865750	2	cue_social_high	n/a	32	9	n/a	n/a	n/a
265.681520	2	cue_social	n/a	16	-7	n/a	n/a	n/a
265.681520	2	cue_social_low	n/a	16	-7	n/a	n/a	n/a
272.451660	2	cue_nonsocial	n/a	32	9	n/a	n/a	n/a
272.451660	2	cue_nonsocial_high	n/a	32	9	n/a	n/a	n/a
279.285100	2	cue_nonsocial	n/a	32	9	n/a	n/a	n/a
279.285100	2	cue_nonsocial_high	n/a	32	9	n/a	n/a	n/a
287.024720	2	cue_social	n/a	32	9	n/a	n/a	n/a
287.024720	2	cue_social_high	n/a	32	9	n/a	n/a	n/a
293.768040	2	cue_nonsocial	n/a	32	9	n/a	n/a	n/a
293.768040	2	cue_nonsocial_high	n/a	32	9	n/a	n/a	n/a
301.519700	2	cue_social	n/a	16	-7	n/a	n/a	n/a
301.519700	2	cue_social_low	n/a	16	-7	n/a	n/a	n/a
310.747650	2	cue_social	n/a	16	-7	n/a	n/a	n/a
310.747650	2	cue_social_low	n/a	16	-7	n/a	n/a	n/a
317.502500	2	cue_nonsocial	n/a	16	-7	n/a	n/a	n/a
317.502500	2	cue_nonsocial_low	n/a	16	-7	n/a	n/a	n/a
324.400880	2	cue_social	n/a	32	9	n/a	n/a	n/a
324.400880	2	cue_social_high	n/a	32	9	n/a	n/a	n/a
331.168060	2	cue_nonsocial	n/a	32	9	n/a	n/a	n/a
331.168060	2	cue_nonsocial_high	n/a	32	9	n/a	n/a	n/a
338.001460	2	cue_nonsocial	n/a	16	-7	n/a	n/a	n/a
338.001460	2	cue_nonsocial_low	n/a	16	-7	n/a	n/a	n/a
345.651430	2	cue_nonsocial	n/a	16	-7	n/a	n/a	n/a
345.651430	2	cue_nonsocial_low	n/a	16	-7	n/a	n/a	n/a
353.301270	2	cue_nonsocial	n/a	16	-7	n/a	n/a	n/a
353.301270	2	cue_nonsocial_low	n/a	16	-7	n/a	n/a	n/a
364.245570	2	cue_social	n/a	16	-7	n/a	n/a	n/a
364.245570	2	cue_social_low	n/a	16	-7	n/a	n/a	n/a
371.001460	2	cue_nonsocial	n/a	32	9	n/a	n/a	n/a
371.001460	2	cue_nonsocial_high	n/a	32	9	n/a	n/a	n/a
6.524566	1.700046	dec_nonsocial_choice	1.700046	16.000000	n/a	2	-1.067708e-01	-1.067708e-01
6.524566	1.700046	dec_choice	1.700046	16.000000	n/a	2	-1.080729e-01	-1.080729e-01
6.524566	1.700046	dec_nonsocial_accept	1.700046	16.000000	n/a	2	-1.302083e-01	-1.302083e-01
6.524566	1.700046	dec_accept	1.700046	16.000000	n/a	2	-1.371528e-01	-1.371528e-01
6.524566	1.700046	dec_nonsocial_low	1.700046	16.000000	n/a	2	-1.080729e-01	-1.080729e-01
6.524566	1.700046	dec_nonsocial_accept_low	1.700046	16.000000	n/a	2	-1.371528e-01	-1.371528e-01
13.358076	0.883071	dec_nonsocial_choice	0.883071	32.000000	n/a	2	-1.692708e-01	-1.692708e-01
13.358076	0.883071	dec_choice	0.883071	32.000000	n/a	2	-1.705729e-01	-1.705729e-01
13.358076	0.883071	dec_nonsocial_accept	0.883071	32.000000	n/a	2	-1.927083e-01	-1.927083e-01
13.358076	0.883071	dec_accept	0.883071	32.000000	n/a	2	-1.996528e-01	-1.996528e-01
13.358076	0.883071	dec_nonsocial_low	0.883071	32.000000	n/a	2	-1.705729e-01	-1.705729e-01
13.358076	0.883071	dec_nonsocial_accept_low	0.883071	32.000000	n/a	2	-1.996528e-01	-1.996528e-01
20.190851	0.783676	dec_social_choice	0.783676	32.000000	n/a	8	1.822917e-02	1.822917e-02
20.190851	0.783676	dec_choice	0.783676	32.000000	n/a	8	1.953125e-02	1.953125e-02
20.190851	0.783676	dec_social_accept	0.783676	32.000000	n/a	8	-5.208333e-03	-5.208333e-03
20.190851	0.783676	dec_accept	0.783676	32.000000	n/a	8	1.736111e-03	1.736111e-03
20.190851	0.783676	dec_social_high	0.783676	32.000000	n/a	8	1.953125e-02	1.953125e-02
20.190851	0.783676	dec_social_accept_high	0.783676	32.000000	n/a	8	1.953125e-02	1.953125e-02
29.442053	1.065207	dec_social_choice	1.065207	16.000000	n/a	8	2.682292e-01	2.682292e-01
29.442053	1.065207	dec_choice	1.065207	16.000000	n/a	8	2.695312e-01	2.695312e-01
29.442053	1.065207	dec_social_accept	1.065207	16.000000	n/a	8	2.447917e-01	2.447917e-01
29.442053	1.065207	dec_accept	1.065207	16.000000	n/a	8	2.517361e-01	2.517361e-01
29.442053	1.065207	dec_social_high	1.065207	16.000000	n/a	8	2.695312e-01	2.695312e-01
29.442053	1.065207	dec_social_accept_high	1.065207	16.000000	n/a	8	2.695312e-01	2.695312e-01
36.274635	1.733308	dec_nonsocial_choice	1.733308	32.000000	n/a	8	1.822917e-02	1.822917e-02
36.274635	1.733308	dec_choice	1.733308	32.000000	n/a	8	1.692708e-02	1.692708e-02
36.274635	1.733308	dec_nonsocial_accept	1.733308	32.000000	n/a	8	-5.208333e-03	-5.208333e-03
36.274635	1.733308	dec_accept	1.733308	32.000000	n/a	8	-1.215278e-02	-1.215278e-02
36.274635	1.733308	dec_nonsocial_accept_high	1.733308	32.000000	n/a	8	1.736111e-03	1.736111e-03
43.107983	1.549776	dec_social_choice	1.549776	16.000000	n/a	0	0	-2.317708e-01
43.107983	1.549776	dec_choice	1.549776	16.000000	n/a	0	0	-2.304688e-01
43.107983	1.549776	dec_social_reject	1.549776	16.000000	n/a	0	0	3.385417e-01
43.107983	1.549776	dec_reject	1.549776	16.000000	n/a	0	0	3.229167e-01
43.107983	1.549776	dec_social_low	1.549776	16.000000	n/a	0	-2.304688e-01	-2.304688e-01
43.107983	1.549776	dec_social_reject_low	1.549776	16.000000	n/a	8	2.695312e-01	-2.304688e-01
49.941498	1.382983	dec_social_choice	1.382983	16.000000	n/a	1	-1.692708e-01	-1.692708e-01
49.941498	1.382983	dec_choice	1.382983	16.000000	n/a	1	-1.679688e-01	-1.679688e-01
49.941498	1.382983	dec_social_accept	1.382983	16.000000	n/a	1	-1.927083e-01	-1.927083e-01
49.941498	1.382983	dec_accept	1.382983	16.000000	n/a	1	-1.857639e-01	-1.857639e-01
49.941498	1.382983	dec_social_accept_low	1.382983	16.000000	n/a	1	-1.679688e-01	-1.679688e-01
56.774640	1.299320	dec_nonsocial_choice	1.299320	16.000000	n/a	2	-1.067708e-01	-1.067708e-01
56.774640	1.299320	dec_choice	1.299320	16.000000	n/a	2	-1.080729e-01	-1.080729e-01
56.774640	1.299320	dec_nonsocial_accept	1.299320	16.000000	n/a	2	-1.302083e-01	-1.302083e-01
56.774640	1.299320	dec_accept	1.299320	16.000000	n/a	2	-1.371528e-01	-1.371528e-01
56.774640	1.299320	dec_nonsocial_low	1.299320	16.000000	n/a	2	-1.080729e-01	-1.080729e-01
56.774640	1.299320	dec_nonsocial_accept_low	1.299320	16.000000	n/a	2	-1.371528e-01	-1.371528e-01
64.423570	1.116771	dec_social_choice	1.116771	32.000000	n/a	3	-1.380208e-01	-1.380208e-01
64.423570	1.116771	dec_choice	1.116771	32.000000	n/a	3	-1.367188e-01	-1.367188e-01
64.423570	1.116771	dec_social_accept	1.116771	32.000000	n/a	3	-1.614583e-01	-1.614583e-01
64.423570	1.116771	dec_accept	1.116771	32.000000	n/a	3	-1.545139e-01	-1.545139e-01
64.423570	1.116771	dec_social_low	1.116771	32.000000	n/a	3	-1.367188e-01	-1.367188e-01
64.423570	1.116771	dec_social_accept_low	1.116771	32.000000	n/a	3	-1.367188e-01	-1.367188e-01
72.073494	2.216958	dec_social_choice	2.216958	16.000000	n/a	0	0	-2.317708e-01
72.073494	2.216958	dec_choice	2.216958	16.000000	n/a	0	0	-2.304688e-01
72.073494	2.216958	dec_social_reject	2.216958	16.000000	n/a	0	0	8.854167e-02
72.073494	2.216958	dec_reject	2.216958	16.000000	n/a	0	0	7.291667e-02
72.073494	2.216958	dec_social_reject_low	2.216958	16.000000	n/a	4	1.953125e-02	-2.304688e-01
78.907240	1.650498	dec_nonsocial_choice	1.650498	32.000000	n/a	2	-1.692708e-01	-1.692708e-01
78.907240	1.650498	dec_choice	1.650498	32.000000	n/a	2	-1.705729e-01	-1.705729e-01
78.907240	1.650498	dec_nonsocial_accept	1.650498	32.000000	n/a	2	-1.927083e-01	-1.927083e-01
78.907240	1.650498	dec_accept	1.650498	32.000000	n/a	2	-1.996528e-01	-1.996528e-01
78.907240	1.650498	dec_nonsocial_accept_low	1.650498	32.000000	n/a	2	-1.857639e-01	-1.857639e-01
85.741920	1.615241	dec_nonsocial_choice	1.615241	16.000000	n/a	8	2.682292e-01	2.682292e-01
85.741920	1.615241	dec_choice	1.615241	16.000000	n/a	8	2.669271e-01	2.669271e-01
85.741920	1.615241	dec_nonsocial_accept	1.615241	16.000000	n/a	8	2.447917e-01	2.447917e-01
85.741920	1.615241	dec_accept	1.615241	16.000000	n/a	8	2.378472e-01	2.378472e-01
85.741920	1.615241	dec_nonsocial_accept_high	1.615241	16.000000	n/a	8	2.517361e-01	2.517361e-01
93.392030	1.382384	dec_nonsocial_choice	1.382384	32.000000	n/a	0	0	-2.317708e-01
93.392030	1.382384	dec_choice	1.382384	32.000000	n/a	0	0	-2.330729e-01
93.392030	1.382384	dec_nonsocial_reject	1.382384	32.000000	n/a	0	0	8.854167e-02
93.392030	1.382384	dec_reject	1.382384	32.000000	n/a	0	0	1.041667e-01
93.392030	1.382384	dec_nonsocial_low	1.382384	32.000000	n/a	0	-2.330729e-01	-2.330729e-01
93.392030	1.382384	dec_nonsocial_reject_low	1.382384	32.000000	n/a	8	1.041667e-01	-1.458333e-01
101.040830	1.750111	dec_nonsocial_choice	1.750111	16.000000	n/a	0	0	-2.317708e-01
101.040830	1.750111	dec_choice	1.750111	16.000000	n/a	0	0	-2.330729e-01
101.040830	1.750111	dec_nonsocial_reject	1.750111	16.000000	n/a	0	0	-3.645833e-02
101.040830	1.750111	dec_reject	1.750111	16.000000	n/a	0	0	-2.083333e-02
101.040830	1.750111	dec_nonsocial_reject_low	1.750111	16.000000	n/a	2	-5.208333e-02	-1.770833e-01
107.874030	2.183630	dec_nonsocial_choice	2.183630	16.000000	n/a	4	1.822917e-02	1.822917e-02
107.874030	2.183630	dec_choice	2.183630	16.000000	n/a	4	1.692708e-02	1.692708e-02
107.874030	2.183630	dec_nonsocial_accept	2.183630	16.000000	n/a	4	-5.208333e-03	-5.208333e-03
107.874030	2.183630	dec_accept	2.183630	16.000000	n/a	4	-1.215278e-02	-1.215278e-02
107.874030	2.183630	dec_nonsocial_accept_high	2.183630	16.000000	n/a	4	1.736111e-03	1.736111e-03
115.525100	1.132062	dec_nonsocial_choice	1.132062	32.000000	n/a	0	0	-2.317708e-01
115.525100	1.132062	dec_choice	1.132062	32.000000	n/a	0	0	-2.330729e-01
115.525100	1.132062	dec_nonsocial_reject	1.132062	32.000000	n/a	0	0	8.854167e-02
115.525100	1.132062	dec_reject	1.132062	32.000000	n/a	0	0	1.041667e-01
115.525100	1.132062	dec_nonsocial_low	1.132062	32.000000	n/a	0	-2.330729e-01	-2.330729e-01
115.525100	1.132062	dec_nonsocial_reject_low	1.132062	32.000000	n/a	8	1.041667e-01	-1.458333e-01
124.791750	1.165385	dec_social_choice	1.165385	16.000000	n/a	8	2.682292e-01	2.682292e-01
124.791750	1.165385	dec_choice	1.165385	16.000000	n/a	8	2.695312e-01	2.695312e-01
124.791750	1.165385	dec_social_accept	1.165385	16.000000	n/a	8	2.447917e-01	2.447917e-01
124.791750	1.165385	dec_accept	1.165385	16.000000	n/a	8	2.517361e-01	2.517361e-01
124.791750	1.165385	dec_social_accept_high	1.165385	16.000000	n/a	8	2.695312e-01	2.695312e-01
137.275050	0.915282	dec_nonsocial_choice	0.915282	16.000000	n/a	8	2.682292e-01	2.682292e-01
137.275050	0.915282	dec_choice	0.915282	16.000000	n/a	8	2.669271e-01	2.669271e-01
137.275050	0.915282	dec_nonsocial_accept	0.915282	16.000000	n/a	8	2.447917e-01	2.447917e-01
137.275050	0.915282	dec_accept	0.915282	16.000000	n/a	8	2.378472e-01	2.378472e-01
137.275050	0.915282	dec_nonsocial_high	0.915282	16.000000	n/a	8	2.669271e-01	2.669271e-01
137.275050	0.915282	dec_nonsocial_accept_high	0.915282	16.000000	n/a	8	2.378472e-01	2.378472e-01
146.541120	1.583196	dec_social_choice	1.583196	16.000000	n/a	2	-1.067708e-01	-1.067708e-01
146.541120	1.583196	dec_choice	1.583196	16.000000	n/a	2	-1.054688e-01	-1.054688e-01
146.541120	1.583196	dec_social_accept	1.583196	16.000000	n/a	2	-1.302083e-01	-1.302083e-01
146.541120	1.583196	dec_accept	1.583196	16.000000	n/a	2	-1.232639e-01	-1.232639e-01
146.541120	1.583196	dec_social_accept_low	1.583196	16.000000	n/a	2	-1.054688e-01	-1.054688e-01
157.407910	1.433209	dec_nonsocial_choice	1.433209	16.000000	n/a	8	2.682292e-01	2.682292e-01
157.407910	1.433209	dec_choice	1.433209	16.000000	n/a	8	2.669271e-01	2.669271e-01
157.407910	1.433209	dec_nonsocial_accept	1.433209	16.000000	n/a	8	2.447917e-01	2.447917e-01
157.407910	1.433209	dec_accept	1.433209	16.000000	n/a	8	2.378472e-01	2.378472e-01
157.407910	1.433209	dec_nonsocial_high	1.433209	16.000000	n/a	8	2.669271e-01	2.669271e-01
157.407910	1.433209	dec_nonsocial_accept_high	1.433209	16.000000	n/a	8	2.378472e-01	2.378472e-01
168.275200	2.064963	dec_social_choice	2.064963	32.000000	n/a	0	0	-2.317708e-01
168.275200	2.064963	dec_choice	2.064963	32.000000	n/a	0	0	-2.304688e-01
168.275200	2.064963	dec_social_reject	2.064963	32.000000	n/a	0	0	-6.770833e-02
168.275200	2.064963	dec_reject	2.064963	32.000000	n/a	0	0	-8.333333e-02
168.275200	2.064963	dec_social_reject_low	2.064963	32.000000	n/a	3	-1.367188e-01	-2.304688e-01
175.924320	1.733106	dec_social_choice	1.733106	32.000000	n/a	0	0	-2.317708e-01
175.924320	1.733106	dec_choice	1.733106	32.000000	n/a	0	0	-2.304688e-01
175.924320	1.733106	dec_social_reject	1.733106	32.000000	n/a	0	0	-9.895833e-02
175.924320	1.733106	dec_reject	1.733106	32.000000	n/a	0	0	-1.145833e-01
175.924320	1.733106	dec_social_low	1.733106	32.000000	n/a	0	-2.304688e-01	-2.304688e-01
175.924320	1.733106	dec_social_reject_low	1.733106	32.000000	n/a	2	-1.679688e-01	-2.304688e-01
185.173360	1.417406	dec_social_choice	1.417406	32.000000	n/a	8	1.822917e-02	1.822917e-02
185.173360	1.417406	dec_choice	1.417406	32.000000	n/a	8	1.953125e-02	1.953125e-02
185.173360	1.417406	dec_social_accept	1.417406	32.000000	n/a	8	-5.208333e-03	-5.208333e-03
185.173360	1.417406	dec_accept	1.417406	32.000000	n/a	8	1.736111e-03	1.736111e-03
185.173360	1.417406	dec_social_high	1.417406	32.000000	n/a	8	1.953125e-02	1.953125e-02
185.173360	1.417406	dec_social_accept_high	1.417406	32.000000	n/a	8	1.953125e-02	1.953125e-02
192.007700	1.282722	dec_nonsocial_choice	1.282722	16.000000	n/a	0	0	-2.317708e-01
192.007700	1.282722	dec_choice	1.282722	16.000000	n/a	0	0	-2.330729e-01
192.007700	1.282722	dec_nonsocial_reject	1.282722	16.000000	n/a	0	0	-3.645833e-02
192.007700	1.282722	dec_reject	1.282722	16.000000	n/a	0	0	-2.083333e-02
192.007700	1.282722	dec_nonsocial_low	1.282722	16.000000	n/a	0	-2.330729e-01	-2.330729e-01
192.007700	1.282722	dec_nonsocial_reject_low	1.282722	16.000000	n/a	2	-2.083333e-02	-1.458333e-01
199.657270	1.916398	dec_social_choice	1.916398	16.000000	n/a	8	2.682292e-01	2.682292e-01
199.657270	1.916398	dec_choice	1.916398	16.000000	n/a	8	2.695312e-01	2.695312e-01
199.657270	1.916398	dec_social_accept	1.916398	16.000000	n/a	8	2.447917e-01	2.447917e-01
199.657270	1.916398	dec_accept	1.916398	16.000000	n/a	8	2.517361e-01	2.517361e-01
199.657270	1.916398	dec_social_accept_high	1.916398	16.000000	n/a	8	2.695312e-01	2.695312e-01
207.291000	1.549881	dec_social_choice	1.549881	16.000000	n/a	4	1.822917e-02	1.822917e-02
207.291000	1.549881	dec_choice	1.549881	16.000000	n/a	4	1.953125e-02	1.953125e-02
207.291000	1.549881	dec_social_accept	1.549881	16.000000	n/a	4	-5.208333e-03	-5.208333e-03
207.291000	1.549881	dec_accept	1.549881	16.000000	n/a	4	1.736111e-03	1.736111e-03
207.291000	1.549881	dec_social_high	1.549881	16.000000	n/a	4	1.953125e-02	1.953125e-02
207.291000	1.549881	dec_social_accept_high	1.549881	16.000000	n/a	4	1.953125e-02	1.953125e-02
214.124330	1.515915	dec_social_choice	1.515915	32.000000	n/a	2	-1.692708e-01	-1.692708e-01
214.124330	1.515915	dec_choice	1.515915	32.000000	n/a	2	-1.679688e-01	-1.679688e-01
214.124330	1.515915	dec_social_accept	1.515915	32.000000	n/a	2	-1.927083e-01	-1.927083e-01
214.124330	1.515915	dec_accept	1.515915	32.000000	n/a	2	-1.857639e-01	-1.857639e-01
214.124330	1.515915	dec_social_low	1.515915	32.000000	n/a	2	-1.679688e-01	-1.679688e-01
214.124330	1.515915	dec_social_accept_low	1.515915	32.000000	n/a	2	-1.679688e-01	-1.679688e-01
221.773200	1.484745	dec_social_choice	1.484745	16.000000	n/a	1	-1.692708e-01	-1.692708e-01
221.773200	1.484745	dec_choice	1.484745	16.000000	n/a	1	-1.679688e-01	-1.679688e-01
221.773200	1.484745	dec_social_accept	1.484745	16.000000	n/a	1	-1.927083e-01	-1.927083e-01
221.773200	1.484745	dec_accept	1.484745	16.000000	n/a	1	-1.857639e-01	-1.857639e-01
221.773200	1.484745	dec_social_low	1.484745	16.000000	n/a	1	-1.679688e-01	-1.679688e-01
221.773200	1.484745	dec_social_accept_low	1.484745	16.000000	n/a	1	-1.679688e-01	-1.679688e-01
231.024460	2.015871	dec_social_choice	2.015871	32.000000	n/a	0	0	-2.317708e-01
231.024460	2.015871	dec_choice	2.015871	32.000000	n/a	0	0	-2.304688e-01
231.024460	2.015871	dec_social_reject	2.015871	32.000000	n/a	0	0	-9.895833e-02
231.024460	2.015871	dec_reject	2.015871	32.000000	n/a	0	0	-1.145833e-01
231.024460	2.015871	dec_social_low	2.015871	32.000000	n/a	0	-2.304688e-01	-2.304688e-01
231.024460	2.015871	dec_social_reject_low	2.015871	32.000000	n/a	2	-1.679688e-01	-2.304688e-01
237.858410	1.931776	dec_nonsocial_choice	1.931776	16.000000	n/a	0	0	-2.317708e-01
237.858410	1.931776	dec_choice	1.931776	16.000000	n/a	0	0	-2.330729e-01
237.858410	1.931776	dec_nonsocial_reject	1.931776	16.000000	n/a	0	0	-9.895833e-02
237.858410	1.931776	dec_reject	1.931776	16.000000	n/a	0	0	-8.333333e-02
237.858410	1.931776	dec_nonsocial_reject_low	1.931776	16.000000	n/a	1	-1.145833e-01	-1.770833e-01
247.125400	2.098723	dec_nonsocial_choice	2.098723	32.000000	n/a	0	0	-2.317708e-01
247.125400	2.098723	dec_choice	2.098723	32.000000	n/a	0	0	-2.330729e-01
247.125400	2.098723	dec_nonsocial_reject	2.098723	32.000000	n/a	0	0	-9.895833e-02
247.125400	2.098723	dec_reject	2.098723	32.000000	n/a	0	0	-8.333333e-02
247.125400	2.098723	dec_nonsocial_low	2.098723	32.000000	n/a	0	-2.330729e-01	-2.330729e-01
247.125400	2.098723	dec_nonsocial_reject_low	2.098723	32.000000	n/a	2	-8.333333e-02	-1.458333e-01
253.958000	1.399449	dec_social_choice	1.399449	32.000000	n/a	0	0	-2.317708e-01
253.958000	1.399449	dec_choice	1.399449	32.000000	n/a	0	0	-2.304688e-01
253.958000	1.399449	dec_social_reject	1.399449	32.000000	n/a	0	0	-6.770833e-02
253.958000	1.399449	dec_reject	1.399449	32.000000	n/a	0	0	-8.333333e-02
253.958000	1.399449	dec_social_low	1.399449	32.000000	n/a	0	-2.304688e-01	-2.304688e-01
253.958000	1.399449	dec_social_reject_low	1.399449	32.000000	n/a	3	-1.367188e-01	-2.304688e-01
260.790340	1.350317	dec_social_choice	1.350317	32.000000	n/a	16	2.682292e-01	2.682292e-01
260.790340	1.350317	dec_choice	1.350317	32.000000	n/a	16	2.695312e-01	2.695312e-01
260.790340	1.350317	dec_social_accept	1.350317	32.000000	n/a	16	2.447917e-01	2.447917e-01
260.790340	1.350317	dec_accept	1.350317	32.000000	n/a	16	2.517361e-01	2.517361e-01
260.790340	1.350317	dec_social_accept_high	1.350317	32.000000	n/a	16	2.695312e-01	2.695312e-01
267.625000	0.815046	dec_social_choice	0.815046	16.000000	n/a	2	-1.067708e-01	-1.067708e-01
267.625000	0.815046	dec_choice	0.815046	16.000000	n/a	2	-1.054688e-01	-1.054688e-01
267.625000	0.815046	dec_social_accept	0.815046	16.000000	n/a	2	-1.302083e-01	-1.302083e-01
267.625000	0.815046	dec_accept	0.815046	16.000000	n/a	2	-1.232639e-01	-1.232639e-01
267.625000	0.815046	dec_social_accept_low	0.815046	16.000000	n/a	2	-1.054688e-01	-1.054688e-01
274.457460	1.049529	dec_nonsocial_choice	1.049529	32.000000	n/a	8	1.822917e-02	1.822917e-02
274.457460	1.049529	dec_choice	1.049529	32.000000	n/a	8	1.692708e-02	1.692708e-02
274.457460	1.049529	dec_nonsocial_accept	1.049529	32.000000	n/a	8	-5.208333e-03	-5.208333e-03
274.457460	1.049529	dec_accept	1.049529	32.000000	n/a	8	-1.215278e-02	-1.215278e-02
274.457460	1.049529	dec_nonsocial_accept_high	1.049529	32.000000	n/a	8	1.736111e-03	1.736111e-03
281.290000	1.166772	dec_nonsocial_choice	1.166772	32.000000	n/a	3	-1.380208e-01	-1.380208e-01
281.290000	1.166772	dec_choice	1.166772	32.000000	n/a	3	-1.393229e-01	-1.393229e-01
281.290000	1.166772	dec_nonsocial_accept	1.166772	32.000000	n/a	3	-1.614583e-01	-1.614583e-01
281.290000	1.166772	dec_accept	1.166772	32.000000	n/a	3	-1.684028e-01	-1.684028e-01
281.290000	1.166772	dec_nonsocial_accept_low	1.166772	32.000000	n/a	3	-1.545139e-01	-1.545139e-01
288.940430	1.783576	dec_social_choice	1.783576	32.000000	n/a	16	2.682292e-01	2.682292e-01
288.940430	1.783576	dec_choice	1.783576	32.000000	n/a	16	2.695312e-01	2.695312e-01
288.940430	1.783576	dec_social_accept	1.783576	32.000000	n/a	16	2.447917e-01	2.447917e-01
288.940430	1.783576	dec_accept	1.783576	32.000000	n/a	16	2.517361e-01	2.517361e-01
288.940430	1.783576	dec_social_high	1.783576	32.000000	n/a	16	2.695312e-01	2.695312e-01
288.940430	1.783576	dec_social_accept_high	1.783576	32.000000	n/a	16	2.695312e-01	2.695312e-01
295.773130	1.534275	dec_nonsocial_choice	1.534275	32.000000	n/a	2	-1.692708e-01	-1.692708e-01
295.773130	1.534275	dec_choice	1.534275	32.000000	n/a	2	-1.705729e-01	-1.705729e-01
295.773130	1.534275	dec_nonsocial_accept	1.534275	32.000000	n/a	2	-1.927083e-01	-1.927083e-01
295.773130	1.534275	dec_accept	1.534275	32.000000	n/a	2	-1.996528e-01	-1.996528e-01
295.773130	1.534275	dec_nonsocial_low	1.534275	32.000000	n/a	2	-1.705729e-01	-1.705729e-01
295.773130	1.534275	dec_nonsocial_accept_low	1.534275	32.000000	n/a	2	-1.996528e-01	-1.996528e-01
303.423980	1.333359	dec_social_choice	1.333359	16.000000	n/a	2	-1.067708e-01	-1.067708e-01
303.423980	1.333359	dec_choice	1.333359	16.000000	n/a	2	-1.054688e-01	-1.054688e-01
303.423980	1.333359	dec_social_accept	1.333359	16.000000	n/a	2	-1.302083e-01	-1.302083e-01
303.423980	1.333359	dec_accept	1.333359	16.000000	n/a	2	-1.232639e-01	-1.232639e-01
303.423980	1.333359	dec_social_low	1.333359	16.000000	n/a	2	-1.054688e-01	-1.054688e-01
303.423980	1.333359	dec_social_accept_low	1.333359	16.000000	n/a	2	-1.054688e-01	-1.054688e-01
312.674040	1.182839	dec_social_choice	1.182839	16.000000	n/a	4	1.822917e-02	1.822917e-02
312.674040	1.182839	dec_choice	1.182839	16.000000	n/a	4	1.953125e-02	1.953125e-02
312.674040	1.182839	dec_social_accept	1.182839	16.000000	n/a	4	-5.208333e-03	-5.208333e-03
312.674040	1.182839	dec_accept	1.182839	16.000000	n/a	4	1.736111e-03	1.736111e-03
312.674040	1.182839	dec_social_high	1.182839	16.000000	n/a	4	1.953125e-02	1.953125e-02
312.674040	1.182839	dec_social_accept_high	1.182839	16.000000	n/a	4	1.953125e-02	1.953125e-02
319.506930	1.049931	dec_nonsocial_choice	1.049931	16.000000	n/a	2	-1.067708e-01	-1.067708e-01
319.506930	1.049931	dec_choice	1.049931	16.000000	n/a	2	-1.080729e-01	-1.080729e-01
319.506930	1.049931	dec_nonsocial_accept	1.049931	16.000000	n/a	2	-1.302083e-01	-1.302083e-01
319.506930	1.049931	dec_accept	1.049931	16.000000	n/a	2	-1.371528e-01	-1.371528e-01
319.506930	1.049931	dec_nonsocial_low	1.049931	16.000000	n/a	2	-1.080729e-01	-1.080729e-01
319.506930	1.049931	dec_nonsocial_accept_low	1.049931	16.000000	n/a	2	-1.371528e-01	-1.371528e-01
326.340940	0.933224	dec_social_choice	0.933224	32.000000	n/a	2	-1.692708e-01	-1.692708e-01
326.340940	0.933224	dec_choice	0.933224	32.000000	n/a	2	-1.679688e-01	-1.679688e-01
326.340940	0.933224	dec_social_accept	0.933224	32.000000	n/a	2	-1.927083e-01	-1.927083e-01
326.340940	0.933224	dec_accept	0.933224	32.000000	n/a	2	-1.857639e-01	-1.857639e-01
326.340940	0.933224	dec_social_low	0.933224	32.000000	n/a	2	-1.679688e-01	-1.679688e-01
326.340940	0.933224	dec_social_accept_low	0.933224	32.000000	n/a	2	-1.679688e-01	-1.679688e-01
333.173980	2.316117	dec_nonsocial_choice	2.316117	32.000000	n/a	8	1.822917e-02	1.822917e-02
333.173980	2.316117	dec_choice	2.316117	32.000000	n/a	8	1.692708e-02	1.692708e-02
333.173980	2.316117	dec_nonsocial_accept	2.316117	32.000000	n/a	8	-5.208333e-03	-5.208333e-03
333.173980	2.316117	dec_accept	2.316117	32.000000	n/a	8	-1.215278e-02	-1.215278e-02
333.173980	2.316117	dec_nonsocial_accept_high	2.316117	32.000000	n/a	8	1.736111e-03	1.736111e-03
340.007000	2.633592	dec_nonsocial_choice	2.633592	16.000000	n/a	8	2.682292e-01	2.682292e-01
340.007000	2.633592	dec_choice	2.633592	16.000000	n/a	8	2.669271e-01	2.669271e-01
340.007000	2.633592	dec_nonsocial_accept	2.633592	16.000000	n/a	8	2.447917e-01	2.447917e-01
340.007000	2.633592	dec_accept	2.633592	16.000000	n/a	8	2.378472e-01	2.378472e-01
340.007000	2.633592	dec_nonsocial_high	2.633592	16.000000	n/a	8	2.669271e-01	2.669271e-01
340.007000	2.633592	dec_nonsocial_accept_high	2.633592	16.000000	n/a	8	2.378472e-01	2.378472e-01
347.657350	1.316117	dec_nonsocial_choice	1.316117	16.000000	n/a	1	-1.692708e-01	-1.692708e-01
347.657350	1.316117	dec_choice	1.316117	16.000000	n/a	1	-1.705729e-01	-1.705729e-01
347.657350	1.316117	dec_nonsocial_accept	1.316117	16.000000	n/a	1	-1.927083e-01	-1.927083e-01
347.657350	1.316117	dec_accept	1.316117	16.000000	n/a	1	-1.996528e-01	-1.996528e-01
347.657350	1.316117	dec_nonsocial_low	1.316117	16.000000	n/a	1	-1.705729e-01	-1.705729e-01
347.657350	1.316117	dec_nonsocial_accept_low	1.316117	16.000000	n/a	1	-1.996528e-01	-1.996528e-01
355.308170	1.749076	dec_nonsocial_choice	1.749076	16.000000	n/a	8	2.682292e-01	2.682292e-01
355.308170	1.749076	dec_choice	1.749076	16.000000	n/a	8	2.669271e-01	2.669271e-01
355.308170	1.749076	dec_nonsocial_accept	1.749076	16.000000	n/a	8	2.447917e-01	2.447917e-01
355.308170	1.749076	dec_accept	1.749076	16.000000	n/a	8	2.378472e-01	2.378472e-01
355.308170	1.749076	dec_nonsocial_accept_high	1.749076	16.000000	n/a	8	2.517361e-01	2.517361e-01
366.173400	0.917135	dec_social_choice	0.917135	16.000000	n/a	4	1.822917e-02	1.822917e-02
366.173400	0.917135	dec_choice	0.917135	16.000000	n/a	4	1.953125e-02	1.953125e-02
366.173400	0.917135	dec_social_accept	0.917135	16.000000	n/a	4	-5.208333e-03	-5.208333e-03
366.173400	0.917135	dec_accept	0.917135	16.000000	n/a	4	1.736111e-03	1.736111e-03
366.173400	0.917135	dec_social_accept_high	0.917135	16.000000	n/a	4	1.953125e-02	1.953125e-02
373.007050	1.383191	dec_nonsocial_choice	1.383191	32.000000	n/a	16	2.682292e-01	2.682292e-01
373.007050	1.383191	dec_choice	1.383191	32.000000	n/a	16	2.669271e-01	2.669271e-01
373.007050	1.383191	dec_nonsocial_accept	1.383191	32.000000	n/a	16	2.447917e-01	2.447917e-01
373.007050	1.383191	dec_accept	1.383191	32.000000	n/a	16	2.378472e-01	2.378472e-01
373.007050	1.383191	dec_nonsocial_high	1.383191	32.000000	n/a	16	2.669271e-01	2.669271e-01
373.007050	1.383191	dec_nonsocial_accept_high	1.383191	32.000000	n/a	16	2.378472e-01	2.378472e-01
