onset	duration	trial_type	response_time	Endowment	Endowment_pmod	Decision	Decision_pmod	Offer_pmod
4.511281	2	cue_nonsocial	n/a	32	6	n/a	n/a	n/a
4.511281	2	cue_nonsocial_high	n/a	32	6	n/a	n/a	n/a
12.233462	2	cue_social	n/a	32	6	n/a	n/a	n/a
12.233462	2	cue_social_high	n/a	32	6	n/a	n/a	n/a
19.808773	2	cue_nonsocial	n/a	32	6	n/a	n/a	n/a
19.808773	2	cue_nonsocial_high	n/a	32	6	n/a	n/a	n/a
26.641699	2	cue_nonsocial	n/a	32	6	n/a	n/a	n/a
26.641699	2	cue_nonsocial_high	n/a	32	6	n/a	n/a	n/a
36.016228	2	cue_social	n/a	32	6	n/a	n/a	n/a
36.016228	2	cue_social_high	n/a	32	6	n/a	n/a	n/a
42.767487	2	cue_social	n/a	32	6	n/a	n/a	n/a
42.767487	2	cue_social_high	n/a	32	6	n/a	n/a	n/a
49.674744	2	cue_social	n/a	16	-10	n/a	n/a	n/a
49.674744	2	cue_social_low	n/a	16	-10	n/a	n/a	n/a
56.408640	2	cue_nonsocial	n/a	32	6	n/a	n/a	n/a
56.408640	2	cue_nonsocial_high	n/a	32	6	n/a	n/a	n/a
63.343420	2	cue_social	n/a	32	6	n/a	n/a	n/a
63.343420	2	cue_social_high	n/a	32	6	n/a	n/a	n/a
70.179950	2	cue_social	n/a	32	6	n/a	n/a	n/a
70.179950	2	cue_social_high	n/a	32	6	n/a	n/a	n/a
77.856510	2	cue_social	n/a	16	-10	n/a	n/a	n/a
77.856510	2	cue_social_low	n/a	16	-10	n/a	n/a	n/a
84.653750	2	cue_social	n/a	16	-10	n/a	n/a	n/a
84.653750	2	cue_social_low	n/a	16	-10	n/a	n/a	n/a
92.192010	2	cue_nonsocial	n/a	16	-10	n/a	n/a	n/a
92.192010	2	cue_nonsocial_low	n/a	16	-10	n/a	n/a	n/a
99.029430	2	cue_social	n/a	32	6	n/a	n/a	n/a
99.029430	2	cue_social_high	n/a	32	6	n/a	n/a	n/a
105.975266	2	cue_social	n/a	32	6	n/a	n/a	n/a
105.975266	2	cue_social_high	n/a	32	6	n/a	n/a	n/a
115.125145	2	cue_nonsocial	n/a	32	6	n/a	n/a	n/a
115.125145	2	cue_nonsocial_high	n/a	32	6	n/a	n/a	n/a
122.066390	2	cue_social	n/a	32	6	n/a	n/a	n/a
122.066390	2	cue_social_high	n/a	32	6	n/a	n/a	n/a
131.311460	2	cue_social	n/a	16	-10	n/a	n/a	n/a
131.311460	2	cue_social_low	n/a	16	-10	n/a	n/a	n/a
138.107670	2	cue_social	n/a	16	-10	n/a	n/a	n/a
138.107670	2	cue_social_low	n/a	16	-10	n/a	n/a	n/a
145.776300	2	cue_social	n/a	32	6	n/a	n/a	n/a
145.776300	2	cue_social_high	n/a	32	6	n/a	n/a	n/a
152.531250	2	cue_social	n/a	32	6	n/a	n/a	n/a
152.531250	2	cue_social_high	n/a	32	6	n/a	n/a	n/a
159.358580	2	cue_nonsocial	n/a	32	6	n/a	n/a	n/a
159.358580	2	cue_nonsocial_high	n/a	32	6	n/a	n/a	n/a
170.295070	2	cue_social	n/a	32	6	n/a	n/a	n/a
170.295070	2	cue_social_high	n/a	32	6	n/a	n/a	n/a
177.154740	2	cue_social	n/a	16	-10	n/a	n/a	n/a
177.154740	2	cue_social_low	n/a	16	-10	n/a	n/a	n/a
186.308100	2	cue_nonsocial	n/a	32	6	n/a	n/a	n/a
186.308100	2	cue_nonsocial_high	n/a	32	6	n/a	n/a	n/a
193.957840	2	cue_nonsocial	n/a	32	6	n/a	n/a	n/a
193.957840	2	cue_nonsocial_high	n/a	32	6	n/a	n/a	n/a
204.824650	2	cue_nonsocial	n/a	16	-10	n/a	n/a	n/a
204.824650	2	cue_nonsocial_low	n/a	16	-10	n/a	n/a	n/a
211.658050	2	cue_nonsocial	n/a	32	6	n/a	n/a	n/a
211.658050	2	cue_nonsocial_high	n/a	32	6	n/a	n/a	n/a
219.414500	2	cue_social	n/a	32	6	n/a	n/a	n/a
219.414500	2	cue_social_high	n/a	32	6	n/a	n/a	n/a
226.940930	2	cue_nonsocial	n/a	16	-10	n/a	n/a	n/a
226.940930	2	cue_nonsocial_low	n/a	16	-10	n/a	n/a	n/a
234.591170	2	cue_nonsocial	n/a	32	6	n/a	n/a	n/a
234.591170	2	cue_nonsocial_high	n/a	32	6	n/a	n/a	n/a
242.241180	2	cue_nonsocial	n/a	32	6	n/a	n/a	n/a
242.241180	2	cue_nonsocial_high	n/a	32	6	n/a	n/a	n/a
249.169750	2	cue_social	n/a	32	6	n/a	n/a	n/a
249.169750	2	cue_social_high	n/a	32	6	n/a	n/a	n/a
256.724950	2	cue_nonsocial	n/a	16	-10	n/a	n/a	n/a
256.724950	2	cue_nonsocial_low	n/a	16	-10	n/a	n/a	n/a
264.375700	2	cue_nonsocial	n/a	32	6	n/a	n/a	n/a
264.375700	2	cue_nonsocial_high	n/a	32	6	n/a	n/a	n/a
271.222700	2	cue_nonsocial	n/a	16	-10	n/a	n/a	n/a
271.222700	2	cue_nonsocial_low	n/a	16	-10	n/a	n/a	n/a
278.040950	2	cue_nonsocial	n/a	16	-10	n/a	n/a	n/a
278.040950	2	cue_nonsocial_low	n/a	16	-10	n/a	n/a	n/a
287.307600	2	cue_nonsocial	n/a	32	6	n/a	n/a	n/a
287.307600	2	cue_nonsocial_high	n/a	32	6	n/a	n/a	n/a
299.791100	2	cue_nonsocial	n/a	16	-10	n/a	n/a	n/a
299.791100	2	cue_nonsocial_low	n/a	16	-10	n/a	n/a	n/a
306.726320	2	cue_social	n/a	32	6	n/a	n/a	n/a
306.726320	2	cue_social_high	n/a	32	6	n/a	n/a	n/a
313.457820	2	cue_nonsocial	n/a	32	6	n/a	n/a	n/a
313.457820	2	cue_nonsocial_high	n/a	32	6	n/a	n/a	n/a
322.815920	2	cue_social	n/a	16	-10	n/a	n/a	n/a
322.815920	2	cue_social_low	n/a	16	-10	n/a	n/a	n/a
329.541000	2	cue_nonsocial	n/a	32	6	n/a	n/a	n/a
329.541000	2	cue_nonsocial_high	n/a	32	6	n/a	n/a	n/a
338.792180	2	cue_nonsocial	n/a	16	-10	n/a	n/a	n/a
338.792180	2	cue_nonsocial_low	n/a	16	-10	n/a	n/a	n/a
349.657600	2	cue_nonsocial	n/a	16	-10	n/a	n/a	n/a
349.657600	2	cue_nonsocial_low	n/a	16	-10	n/a	n/a	n/a
356.595550	2	cue_social	n/a	16	-10	n/a	n/a	n/a
356.595550	2	cue_social_low	n/a	16	-10	n/a	n/a	n/a
363.427550	2	cue_social	n/a	16	-10	n/a	n/a	n/a
363.427550	2	cue_social_low	n/a	16	-10	n/a	n/a	n/a
370.963040	2	cue_social	n/a	32	6	n/a	n/a	n/a
370.963040	2	cue_social_high	n/a	32	6	n/a	n/a	n/a
6.512982	1.517139	dec_nonsocial_choice	1.517139	32.000000	n/a	0	0	-2.285156e-01
6.512982	1.517139	dec_choice	1.517139	32.000000	n/a	0	0	-2.278646e-01
6.512982	1.517139	dec_nonsocial_reject	1.517139	32.000000	n/a	0	0	1.171875e-02
6.512982	1.517139	dec_reject	1.517139	32.000000	n/a	0	0	1.302083e-02
6.512982	1.517139	dec_nonsocial_reject_low	1.517139	32.000000	n/a	3	1.041667e-02	-8.333333e-02
14.163620	1.100433	dec_social_choice	1.100433	32.000000	n/a	0	0	-2.285156e-01
14.163620	1.100433	dec_choice	1.100433	32.000000	n/a	0	0	-2.291667e-01
14.163620	1.100433	dec_social_reject	1.100433	32.000000	n/a	0	0	-1.953125e-02
14.163620	1.100433	dec_reject	1.100433	32.000000	n/a	0	0	-2.083333e-02
14.163620	1.100433	dec_social_reject_low	1.100433	32.000000	n/a	2	-1.666667e-01	-2.291667e-01
21.814280	0.966655	dec_nonsocial_choice	0.966655	32.000000	n/a	16	2.714844e-01	2.714844e-01
21.814280	0.966655	dec_choice	0.966655	32.000000	n/a	16	2.721354e-01	2.721354e-01
21.814280	0.966655	dec_nonsocial_accept	0.966655	32.000000	n/a	16	1.250000e-01	1.250000e-01
21.814280	0.966655	dec_accept	0.966655	32.000000	n/a	16	1.250000e-01	1.250000e-01
21.814280	0.966655	dec_nonsocial_high	0.966655	32.000000	n/a	16	2.721354e-01	2.721354e-01
21.814280	0.966655	dec_nonsocial_accept_high	0.966655	32.000000	n/a	16	1.250000e-01	1.250000e-01
28.646870	1.583812	dec_nonsocial_choice	1.583812	32.000000	n/a	0	0	-2.285156e-01
28.646870	1.583812	dec_choice	1.583812	32.000000	n/a	0	0	-2.278646e-01
28.646870	1.583812	dec_nonsocial_reject	1.583812	32.000000	n/a	0	0	1.171875e-02
28.646870	1.583812	dec_reject	1.583812	32.000000	n/a	0	0	1.302083e-02
28.646870	1.583812	dec_nonsocial_low	1.583812	32.000000	n/a	0	-2.278646e-01	-2.278646e-01
28.646870	1.583812	dec_nonsocial_reject_low	1.583812	32.000000	n/a	3	1.302083e-02	-8.072917e-02
37.914715	1.282384	dec_social_choice	1.282384	32.000000	n/a	8	2.148438e-02	2.148438e-02
37.914715	1.282384	dec_choice	1.282384	32.000000	n/a	8	2.083333e-02	2.083333e-02
37.914715	1.282384	dec_social_accept	1.282384	32.000000	n/a	8	-1.250000e-01	-1.250000e-01
37.914715	1.282384	dec_accept	1.282384	32.000000	n/a	8	-1.250000e-01	-1.250000e-01
37.914715	1.282384	dec_social_accept_high	1.282384	32.000000	n/a	8	2.083333e-02	2.083333e-02
44.746326	1.066908	dec_social_choice	1.066908	32.000000	n/a	0	0	-2.285156e-01
44.746326	1.066908	dec_choice	1.066908	32.000000	n/a	0	0	-2.291667e-01
44.746326	1.066908	dec_social_reject	1.066908	32.000000	n/a	0	0	1.171875e-02
44.746326	1.066908	dec_reject	1.066908	32.000000	n/a	0	0	1.041667e-02
44.746326	1.066908	dec_social_reject_low	1.066908	32.000000	n/a	3	-1.354167e-01	-2.291667e-01
51.579500	1.250958	dec_social_choice	1.250958	16.000000	n/a	4	2.148438e-02	2.148438e-02
51.579500	1.250958	dec_choice	1.250958	16.000000	n/a	4	2.083333e-02	2.083333e-02
51.579500	1.250958	dec_social_accept	1.250958	16.000000	n/a	4	-1.250000e-01	-1.250000e-01
51.579500	1.250958	dec_accept	1.250958	16.000000	n/a	4	-1.250000e-01	-1.250000e-01
51.579500	1.250958	dec_social_high	1.250958	16.000000	n/a	4	2.083333e-02	2.083333e-02
51.579500	1.250958	dec_social_accept_high	1.250958	16.000000	n/a	4	2.083333e-02	2.083333e-02
58.414017	1.416379	dec_nonsocial_choice	1.416379	32.000000	n/a	16	2.714844e-01	2.714844e-01
58.414017	1.416379	dec_choice	1.416379	32.000000	n/a	16	2.721354e-01	2.721354e-01
58.414017	1.416379	dec_nonsocial_accept	1.416379	32.000000	n/a	16	1.250000e-01	1.250000e-01
58.414017	1.416379	dec_accept	1.416379	32.000000	n/a	16	1.250000e-01	1.250000e-01
58.414017	1.416379	dec_nonsocial_accept_high	1.416379	32.000000	n/a	16	1.250000e-01	1.250000e-01
65.246900	1.700063	dec_social_choice	1.700063	32.000000	n/a	8	2.148438e-02	2.148438e-02
65.246900	1.700063	dec_choice	1.700063	32.000000	n/a	8	2.083333e-02	2.083333e-02
65.246900	1.700063	dec_social_accept	1.700063	32.000000	n/a	8	-1.250000e-01	-1.250000e-01
65.246900	1.700063	dec_accept	1.700063	32.000000	n/a	8	-1.250000e-01	-1.250000e-01
65.246900	1.700063	dec_social_high	1.700063	32.000000	n/a	8	2.083333e-02	2.083333e-02
65.246900	1.700063	dec_social_accept_high	1.700063	32.000000	n/a	8	2.083333e-02	2.083333e-02
72.079920	1.166325	dec_social_choice	1.166325	32.000000	n/a	0	0	-2.285156e-01
72.079920	1.166325	dec_choice	1.166325	32.000000	n/a	0	0	-2.291667e-01
72.079920	1.166325	dec_social_reject	1.166325	32.000000	n/a	0	0	1.171875e-02
72.079920	1.166325	dec_reject	1.166325	32.000000	n/a	0	0	1.041667e-02
72.079920	1.166325	dec_social_reject_low	1.166325	32.000000	n/a	3	-1.354167e-01	-2.291667e-01
79.713800	1.166481	dec_social_choice	1.166481	16.000000	n/a	4	2.148438e-02	2.148438e-02
79.713800	1.166481	dec_choice	1.166481	16.000000	n/a	4	2.083333e-02	2.083333e-02
79.713800	1.166481	dec_social_accept	1.166481	16.000000	n/a	4	-1.250000e-01	-1.250000e-01
79.713800	1.166481	dec_accept	1.166481	16.000000	n/a	4	-1.250000e-01	-1.250000e-01
79.713800	1.166481	dec_social_accept_high	1.166481	16.000000	n/a	4	2.083333e-02	2.083333e-02
86.546880	1.050252	dec_social_choice	1.050252	16.000000	n/a	8	2.714844e-01	2.714844e-01
86.546880	1.050252	dec_choice	1.050252	16.000000	n/a	8	2.708333e-01	2.708333e-01
86.546880	1.050252	dec_social_accept	1.050252	16.000000	n/a	8	1.250000e-01	1.250000e-01
86.546880	1.050252	dec_accept	1.050252	16.000000	n/a	8	1.250000e-01	1.250000e-01
86.546880	1.050252	dec_social_accept_high	1.050252	16.000000	n/a	8	2.708333e-01	2.708333e-01
94.196884	1.199802	dec_nonsocial_choice	1.199802	16.000000	n/a	0	0	-2.285156e-01
94.196884	1.199802	dec_choice	1.199802	16.000000	n/a	0	0	-2.278646e-01
94.196884	1.199802	dec_nonsocial_reject	1.199802	16.000000	n/a	0	0	-1.953125e-02
94.196884	1.199802	dec_reject	1.199802	16.000000	n/a	0	0	-1.822917e-02
94.196884	1.199802	dec_nonsocial_low	1.199802	16.000000	n/a	0	-2.278646e-01	-2.278646e-01
94.196884	1.199802	dec_nonsocial_reject_low	1.199802	16.000000	n/a	1	-1.822917e-02	-8.072917e-02
101.030590	1.649666	dec_social_choice	1.649666	32.000000	n/a	16	2.714844e-01	2.714844e-01
101.030590	1.649666	dec_choice	1.649666	32.000000	n/a	16	2.708333e-01	2.708333e-01
101.030590	1.649666	dec_social_accept	1.649666	32.000000	n/a	16	1.250000e-01	1.250000e-01
101.030590	1.649666	dec_accept	1.649666	32.000000	n/a	16	1.250000e-01	1.250000e-01
101.030590	1.649666	dec_social_accept_high	1.649666	32.000000	n/a	16	2.708333e-01	2.708333e-01
107.863780	1.083036	dec_social_choice	1.083036	32.000000	n/a	8	2.148438e-02	2.148438e-02
107.863780	1.083036	dec_choice	1.083036	32.000000	n/a	8	2.083333e-02	2.083333e-02
107.863780	1.083036	dec_social_accept	1.083036	32.000000	n/a	8	-1.250000e-01	-1.250000e-01
107.863780	1.083036	dec_accept	1.083036	32.000000	n/a	8	-1.250000e-01	-1.250000e-01
107.863780	1.083036	dec_social_accept_high	1.083036	32.000000	n/a	8	2.083333e-02	2.083333e-02
117.129820	1.316481	dec_nonsocial_choice	1.316481	32.000000	n/a	0	0	-2.285156e-01
117.129820	1.316481	dec_choice	1.316481	32.000000	n/a	0	0	-2.278646e-01
117.129820	1.316481	dec_nonsocial_reject	1.316481	32.000000	n/a	0	0	-1.953125e-02
117.129820	1.316481	dec_reject	1.316481	32.000000	n/a	0	0	-1.822917e-02
117.129820	1.316481	dec_nonsocial_reject_low	1.316481	32.000000	n/a	2	-2.083333e-02	-8.333333e-02
123.962820	1.116990	dec_social_choice	1.116990	32.000000	n/a	0	0	-2.285156e-01
123.962820	1.116990	dec_choice	1.116990	32.000000	n/a	0	0	-2.291667e-01
123.962820	1.116990	dec_social_reject	1.116990	32.000000	n/a	0	0	1.171875e-02
123.962820	1.116990	dec_reject	1.116990	32.000000	n/a	0	0	1.041667e-02
123.962820	1.116990	dec_social_reject_low	1.116990	32.000000	n/a	3	-1.354167e-01	-2.291667e-01
133.212020	1.434334	dec_social_choice	1.434334	16.000000	n/a	0	0	-2.285156e-01
133.212020	1.434334	dec_choice	1.434334	16.000000	n/a	0	0	-2.291667e-01
133.212020	1.434334	dec_social_reject	1.434334	16.000000	n/a	0	0	4.296875e-02
133.212020	1.434334	dec_reject	1.434334	16.000000	n/a	0	0	4.166667e-02
133.212020	1.434334	dec_social_reject_low	1.434334	16.000000	n/a	2	-1.041667e-01	-2.291667e-01
140.046830	0.866211	dec_social_choice	0.866211	16.000000	n/a	0	0	-2.285156e-01
140.046830	0.866211	dec_choice	0.866211	16.000000	n/a	0	0	-2.291667e-01
140.046830	0.866211	dec_social_reject	0.866211	16.000000	n/a	0	0	4.296875e-02
140.046830	0.866211	dec_reject	0.866211	16.000000	n/a	0	0	4.166667e-02
140.046830	0.866211	dec_social_reject_low	0.866211	16.000000	n/a	2	-1.041667e-01	-2.291667e-01
147.695880	1.267597	dec_social_choice	1.267597	32.000000	n/a	8	2.148438e-02	2.148438e-02
147.695880	1.267597	dec_choice	1.267597	32.000000	n/a	8	2.083333e-02	2.083333e-02
147.695880	1.267597	dec_social_accept	1.267597	32.000000	n/a	8	-1.250000e-01	-1.250000e-01
147.695880	1.267597	dec_accept	1.267597	32.000000	n/a	8	-1.250000e-01	-1.250000e-01
147.695880	1.267597	dec_social_high	1.267597	32.000000	n/a	8	2.083333e-02	2.083333e-02
147.695880	1.267597	dec_social_accept_high	1.267597	32.000000	n/a	8	2.083333e-02	2.083333e-02
154.530180	1.199567	dec_social_choice	1.199567	32.000000	n/a	0	0	-2.285156e-01
154.530180	1.199567	dec_choice	1.199567	32.000000	n/a	0	0	-2.291667e-01
154.530180	1.199567	dec_social_reject	1.199567	32.000000	n/a	0	0	-1.953125e-02
154.530180	1.199567	dec_reject	1.199567	32.000000	n/a	0	0	-2.083333e-02
154.530180	1.199567	dec_social_low	1.199567	32.000000	n/a	0	-2.291667e-01	-2.291667e-01
154.530180	1.199567	dec_social_reject_low	1.199567	32.000000	n/a	2	-1.666667e-01	-2.291667e-01
161.362550	1.101088	dec_nonsocial_choice	1.101088	32.000000	n/a	8	2.148438e-02	2.148438e-02
161.362550	1.101088	dec_choice	1.101088	32.000000	n/a	8	2.213542e-02	2.213542e-02
161.362550	1.101088	dec_nonsocial_accept	1.101088	32.000000	n/a	8	-1.250000e-01	-1.250000e-01
161.362550	1.101088	dec_accept	1.101088	32.000000	n/a	8	-1.250000e-01	-1.250000e-01
161.362550	1.101088	dec_nonsocial_high	1.101088	32.000000	n/a	8	2.213542e-02	2.213542e-02
161.362550	1.101088	dec_nonsocial_accept_high	1.101088	32.000000	n/a	8	-1.250000e-01	-1.250000e-01
172.229700	1.150256	dec_social_choice	1.150256	32.000000	n/a	0	0	-2.285156e-01
172.229700	1.150256	dec_choice	1.150256	32.000000	n/a	0	0	-2.291667e-01
172.229700	1.150256	dec_social_reject	1.150256	32.000000	n/a	0	0	-1.953125e-02
172.229700	1.150256	dec_reject	1.150256	32.000000	n/a	0	0	-2.083333e-02
172.229700	1.150256	dec_social_reject_low	1.150256	32.000000	n/a	2	-1.666667e-01	-2.291667e-01
179.063370	1.300042	dec_social_choice	1.300042	16.000000	n/a	8	2.714844e-01	2.714844e-01
179.063370	1.300042	dec_choice	1.300042	16.000000	n/a	8	2.708333e-01	2.708333e-01
179.063370	1.300042	dec_social_accept	1.300042	16.000000	n/a	8	1.250000e-01	1.250000e-01
179.063370	1.300042	dec_accept	1.300042	16.000000	n/a	8	1.250000e-01	1.250000e-01
179.063370	1.300042	dec_social_high	1.300042	16.000000	n/a	8	2.708333e-01	2.708333e-01
179.063370	1.300042	dec_social_accept_high	1.300042	16.000000	n/a	8	2.708333e-01	2.708333e-01
188.313980	1.415614	dec_nonsocial_choice	1.415614	32.000000	n/a	0	0	-2.285156e-01
188.313980	1.415614	dec_choice	1.415614	32.000000	n/a	0	0	-2.278646e-01
188.313980	1.415614	dec_nonsocial_reject	1.415614	32.000000	n/a	0	0	1.171875e-02
188.313980	1.415614	dec_reject	1.415614	32.000000	n/a	0	0	1.302083e-02
188.313980	1.415614	dec_nonsocial_low	1.415614	32.000000	n/a	0	-2.278646e-01	-2.278646e-01
188.313980	1.415614	dec_nonsocial_reject_low	1.415614	32.000000	n/a	3	1.302083e-02	-8.072917e-02
195.963410	1.233492	dec_nonsocial_choice	1.233492	32.000000	n/a	16	2.714844e-01	2.714844e-01
195.963410	1.233492	dec_choice	1.233492	32.000000	n/a	16	2.721354e-01	2.721354e-01
195.963410	1.233492	dec_nonsocial_accept	1.233492	32.000000	n/a	16	1.250000e-01	1.250000e-01
195.963410	1.233492	dec_accept	1.233492	32.000000	n/a	16	1.250000e-01	1.250000e-01
195.963410	1.233492	dec_nonsocial_high	1.233492	32.000000	n/a	16	2.721354e-01	2.721354e-01
195.963410	1.233492	dec_nonsocial_accept_high	1.233492	32.000000	n/a	16	1.250000e-01	1.250000e-01
206.830860	1.182492	dec_nonsocial_choice	1.182492	16.000000	n/a	4	2.148438e-02	2.148438e-02
206.830860	1.182492	dec_choice	1.182492	16.000000	n/a	4	2.213542e-02	2.213542e-02
206.830860	1.182492	dec_nonsocial_accept	1.182492	16.000000	n/a	4	-1.250000e-01	-1.250000e-01
206.830860	1.182492	dec_accept	1.182492	16.000000	n/a	4	-1.250000e-01	-1.250000e-01
206.830860	1.182492	dec_nonsocial_high	1.182492	16.000000	n/a	4	2.213542e-02	2.213542e-02
206.830860	1.182492	dec_nonsocial_accept_high	1.182492	16.000000	n/a	4	-1.250000e-01	-1.250000e-01
213.663760	1.199440	dec_nonsocial_choice	1.199440	32.000000	n/a	0	0	-2.285156e-01
213.663760	1.199440	dec_choice	1.199440	32.000000	n/a	0	0	-2.278646e-01
213.663760	1.199440	dec_nonsocial_reject	1.199440	32.000000	n/a	0	0	1.171875e-02
213.663760	1.199440	dec_reject	1.199440	32.000000	n/a	0	0	1.302083e-02
213.663760	1.199440	dec_nonsocial_low	1.199440	32.000000	n/a	0	-2.278646e-01	-2.278646e-01
213.663760	1.199440	dec_nonsocial_reject_low	1.199440	32.000000	n/a	3	1.302083e-02	-8.072917e-02
221.312910	1.150575	dec_social_choice	1.150575	32.000000	n/a	16	2.714844e-01	2.714844e-01
221.312910	1.150575	dec_choice	1.150575	32.000000	n/a	16	2.708333e-01	2.708333e-01
221.312910	1.150575	dec_social_accept	1.150575	32.000000	n/a	16	1.250000e-01	1.250000e-01
221.312910	1.150575	dec_accept	1.150575	32.000000	n/a	16	1.250000e-01	1.250000e-01
221.312910	1.150575	dec_social_high	1.150575	32.000000	n/a	16	2.708333e-01	2.708333e-01
221.312910	1.150575	dec_social_accept_high	1.150575	32.000000	n/a	16	2.708333e-01	2.708333e-01
228.946430	1.650246	dec_nonsocial_choice	1.650246	16.000000	n/a	4	2.148438e-02	2.148438e-02
228.946430	1.650246	dec_choice	1.650246	16.000000	n/a	4	2.213542e-02	2.213542e-02
228.946430	1.650246	dec_nonsocial_accept	1.650246	16.000000	n/a	4	-1.250000e-01	-1.250000e-01
228.946430	1.650246	dec_accept	1.650246	16.000000	n/a	4	-1.250000e-01	-1.250000e-01
228.946430	1.650246	dec_nonsocial_accept_high	1.650246	16.000000	n/a	4	-1.250000e-01	-1.250000e-01
236.595870	1.166894	dec_nonsocial_choice	1.166894	32.000000	n/a	0	0	-2.285156e-01
236.595870	1.166894	dec_choice	1.166894	32.000000	n/a	0	0	-2.278646e-01
236.595870	1.166894	dec_nonsocial_reject	1.166894	32.000000	n/a	0	0	-1.953125e-02
236.595870	1.166894	dec_reject	1.166894	32.000000	n/a	0	0	-1.822917e-02
236.595870	1.166894	dec_nonsocial_reject_low	1.166894	32.000000	n/a	2	-2.083333e-02	-8.333333e-02
244.247540	1.332249	dec_nonsocial_choice	1.332249	32.000000	n/a	8	2.148438e-02	2.148438e-02
244.247540	1.332249	dec_choice	1.332249	32.000000	n/a	8	2.213542e-02	2.213542e-02
244.247540	1.332249	dec_nonsocial_accept	1.332249	32.000000	n/a	8	-1.250000e-01	-1.250000e-01
244.247540	1.332249	dec_accept	1.332249	32.000000	n/a	8	-1.250000e-01	-1.250000e-01
244.247540	1.332249	dec_nonsocial_accept_high	1.332249	32.000000	n/a	8	-1.250000e-01	-1.250000e-01
251.080120	1.116006	dec_social_choice	1.116006	32.000000	n/a	0	0	-2.285156e-01
251.080120	1.116006	dec_choice	1.116006	32.000000	n/a	0	0	-2.291667e-01
251.080120	1.116006	dec_social_reject	1.116006	32.000000	n/a	0	0	-1.953125e-02
251.080120	1.116006	dec_reject	1.116006	32.000000	n/a	0	0	-2.083333e-02
251.080120	1.116006	dec_social_low	1.116006	32.000000	n/a	0	-2.291667e-01	-2.291667e-01
251.080120	1.116006	dec_social_reject_low	1.116006	32.000000	n/a	2	-1.666667e-01	-2.291667e-01
258.729550	1.150306	dec_nonsocial_choice	1.150306	16.000000	n/a	0	0	-2.285156e-01
258.729550	1.150306	dec_choice	1.150306	16.000000	n/a	0	0	-2.278646e-01
258.729550	1.150306	dec_nonsocial_reject	1.150306	16.000000	n/a	0	0	-1.953125e-02
258.729550	1.150306	dec_reject	1.150306	16.000000	n/a	0	0	-1.822917e-02
258.729550	1.150306	dec_nonsocial_low	1.150306	16.000000	n/a	0	-2.278646e-01	-2.278646e-01
258.729550	1.150306	dec_nonsocial_reject_low	1.150306	16.000000	n/a	1	-1.822917e-02	-8.072917e-02
266.380680	1.132641	dec_nonsocial_choice	1.132641	32.000000	n/a	0	0	-2.285156e-01
266.380680	1.132641	dec_choice	1.132641	32.000000	n/a	0	0	-2.278646e-01
266.380680	1.132641	dec_nonsocial_reject	1.132641	32.000000	n/a	0	0	1.171875e-02
266.380680	1.132641	dec_reject	1.132641	32.000000	n/a	0	0	1.302083e-02
266.380680	1.132641	dec_nonsocial_low	1.132641	32.000000	n/a	0	-2.278646e-01	-2.278646e-01
266.380680	1.132641	dec_nonsocial_reject_low	1.132641	32.000000	n/a	3	1.302083e-02	-8.072917e-02
273.213130	1.483347	dec_nonsocial_choice	1.483347	16.000000	n/a	8	2.714844e-01	2.714844e-01
273.213130	1.483347	dec_choice	1.483347	16.000000	n/a	8	2.721354e-01	2.721354e-01
273.213130	1.483347	dec_nonsocial_accept	1.483347	16.000000	n/a	8	1.250000e-01	1.250000e-01
273.213130	1.483347	dec_accept	1.483347	16.000000	n/a	8	1.250000e-01	1.250000e-01
273.213130	1.483347	dec_nonsocial_high	1.483347	16.000000	n/a	8	2.721354e-01	2.721354e-01
273.213130	1.483347	dec_nonsocial_accept_high	1.483347	16.000000	n/a	8	1.250000e-01	1.250000e-01
280.046420	1.483260	dec_nonsocial_choice	1.483260	16.000000	n/a	0	0	-2.285156e-01
280.046420	1.483260	dec_choice	1.483260	16.000000	n/a	0	0	-2.278646e-01
280.046420	1.483260	dec_nonsocial_reject	1.483260	16.000000	n/a	0	0	4.296875e-02
280.046420	1.483260	dec_reject	1.483260	16.000000	n/a	0	0	4.427083e-02
280.046420	1.483260	dec_nonsocial_reject_low	1.483260	16.000000	n/a	2	4.166667e-02	-8.333333e-02
289.312740	0.983621	dec_nonsocial_choice	0.983621	32.000000	n/a	16	2.714844e-01	2.714844e-01
289.312740	0.983621	dec_choice	0.983621	32.000000	n/a	16	2.721354e-01	2.721354e-01
289.312740	0.983621	dec_nonsocial_accept	0.983621	32.000000	n/a	16	1.250000e-01	1.250000e-01
289.312740	0.983621	dec_accept	0.983621	32.000000	n/a	16	1.250000e-01	1.250000e-01
289.312740	0.983621	dec_nonsocial_high	0.983621	32.000000	n/a	16	2.721354e-01	2.721354e-01
289.312740	0.983621	dec_nonsocial_accept_high	0.983621	32.000000	n/a	16	1.250000e-01	1.250000e-01
301.796400	1.116371	dec_nonsocial_choice	1.116371	16.000000	n/a	0	0	-2.285156e-01
301.796400	1.116371	dec_choice	1.116371	16.000000	n/a	0	0	-2.278646e-01
301.796400	1.116371	dec_nonsocial_reject	1.116371	16.000000	n/a	0	0	-1.953125e-02
301.796400	1.116371	dec_reject	1.116371	16.000000	n/a	0	0	-1.822917e-02
301.796400	1.116371	dec_nonsocial_reject_low	1.116371	16.000000	n/a	1	-2.083333e-02	-8.333333e-02
308.630000	1.199722	dec_social_choice	1.199722	32.000000	n/a	0	0	-2.285156e-01
308.630000	1.199722	dec_choice	1.199722	32.000000	n/a	0	0	-2.291667e-01
308.630000	1.199722	dec_social_reject	1.199722	32.000000	n/a	0	0	-1.953125e-02
308.630000	1.199722	dec_reject	1.199722	32.000000	n/a	0	0	-2.083333e-02
308.630000	1.199722	dec_social_low	1.199722	32.000000	n/a	0	-2.291667e-01	-2.291667e-01
308.630000	1.199722	dec_social_reject_low	1.199722	32.000000	n/a	2	-1.666667e-01	-2.291667e-01
315.462980	1.183706	dec_nonsocial_choice	1.183706	32.000000	n/a	16	2.714844e-01	2.714844e-01
315.462980	1.183706	dec_choice	1.183706	32.000000	n/a	16	2.721354e-01	2.721354e-01
315.462980	1.183706	dec_nonsocial_accept	1.183706	32.000000	n/a	16	1.250000e-01	1.250000e-01
315.462980	1.183706	dec_accept	1.183706	32.000000	n/a	16	1.250000e-01	1.250000e-01
315.462980	1.183706	dec_nonsocial_high	1.183706	32.000000	n/a	16	2.721354e-01	2.721354e-01
315.462980	1.183706	dec_nonsocial_accept_high	1.183706	32.000000	n/a	16	1.250000e-01	1.250000e-01
324.713650	1.065469	dec_social_choice	1.065469	16.000000	n/a	8	2.714844e-01	2.714844e-01
324.713650	1.065469	dec_choice	1.065469	16.000000	n/a	8	2.708333e-01	2.708333e-01
324.713650	1.065469	dec_social_accept	1.065469	16.000000	n/a	8	1.250000e-01	1.250000e-01
324.713650	1.065469	dec_accept	1.065469	16.000000	n/a	8	1.250000e-01	1.250000e-01
324.713650	1.065469	dec_social_accept_high	1.065469	16.000000	n/a	8	2.708333e-01	2.708333e-01
331.546540	1.500241	dec_nonsocial_choice	1.500241	32.000000	n/a	8	2.148438e-02	2.148438e-02
331.546540	1.500241	dec_choice	1.500241	32.000000	n/a	8	2.213542e-02	2.213542e-02
331.546540	1.500241	dec_nonsocial_accept	1.500241	32.000000	n/a	8	-1.250000e-01	-1.250000e-01
331.546540	1.500241	dec_accept	1.500241	32.000000	n/a	8	-1.250000e-01	-1.250000e-01
331.546540	1.500241	dec_nonsocial_high	1.500241	32.000000	n/a	8	2.213542e-02	2.213542e-02
331.546540	1.500241	dec_nonsocial_accept_high	1.500241	32.000000	n/a	8	-1.250000e-01	-1.250000e-01
340.796700	1.365673	dec_nonsocial_choice	1.365673	16.000000	n/a	0	0	-2.285156e-01
340.796700	1.365673	dec_choice	1.365673	16.000000	n/a	0	0	-2.278646e-01
340.796700	1.365673	dec_nonsocial_reject	1.365673	16.000000	n/a	0	0	-1.953125e-02
340.796700	1.365673	dec_reject	1.365673	16.000000	n/a	0	0	-1.822917e-02
340.796700	1.365673	dec_nonsocial_low	1.365673	16.000000	n/a	0	-2.278646e-01	-2.278646e-01
340.796700	1.365673	dec_nonsocial_reject_low	1.365673	16.000000	n/a	1	-1.822917e-02	-8.072917e-02
351.663730	1.415989	dec_nonsocial_choice	1.415989	16.000000	n/a	4	2.148438e-02	2.148438e-02
351.663730	1.415989	dec_choice	1.415989	16.000000	n/a	4	2.213542e-02	2.213542e-02
351.663730	1.415989	dec_nonsocial_accept	1.415989	16.000000	n/a	4	-1.250000e-01	-1.250000e-01
351.663730	1.415989	dec_accept	1.415989	16.000000	n/a	4	-1.250000e-01	-1.250000e-01
351.663730	1.415989	dec_nonsocial_high	1.415989	16.000000	n/a	4	2.213542e-02	2.213542e-02
351.663730	1.415989	dec_nonsocial_accept_high	1.415989	16.000000	n/a	4	-1.250000e-01	-1.250000e-01
358.495730	1.133511	dec_social_choice	1.133511	16.000000	n/a	8	2.714844e-01	2.714844e-01
358.495730	1.133511	dec_choice	1.133511	16.000000	n/a	8	2.708333e-01	2.708333e-01
358.495730	1.133511	dec_social_accept	1.133511	16.000000	n/a	8	1.250000e-01	1.250000e-01
358.495730	1.133511	dec_accept	1.133511	16.000000	n/a	8	1.250000e-01	1.250000e-01
358.495730	1.133511	dec_social_accept_high	1.133511	16.000000	n/a	8	2.708333e-01	2.708333e-01
365.330100	1.249500	dec_social_choice	1.249500	16.000000	n/a	0	0	-2.285156e-01
365.330100	1.249500	dec_choice	1.249500	16.000000	n/a	0	0	-2.291667e-01
365.330100	1.249500	dec_social_reject	1.249500	16.000000	n/a	0	0	-1.953125e-02
365.330100	1.249500	dec_reject	1.249500	16.000000	n/a	0	0	-2.083333e-02
365.330100	1.249500	dec_social_reject_low	1.249500	16.000000	n/a	1	-1.666667e-01	-2.291667e-01
372.979920	1.650351	dec_social_choice	1.650351	32.000000	n/a	0	0	-2.285156e-01
372.979920	1.650351	dec_choice	1.650351	32.000000	n/a	0	0	-2.291667e-01
372.979920	1.650351	dec_social_reject	1.650351	32.000000	n/a	0	0	1.171875e-02
372.979920	1.650351	dec_reject	1.650351	32.000000	n/a	0	0	1.041667e-02
372.979920	1.650351	dec_social_low	1.650351	32.000000	n/a	0	-2.291667e-01	-2.291667e-01
372.979920	1.650351	dec_social_reject_low	1.650351	32.000000	n/a	3	-1.354167e-01	-2.291667e-01
