onset	duration	trial_type	response_time	Endowment	Endowment_pmod	Decision	Decision_pmod	Offer_pmod
4.587007	2	cue_social	n/a	32	7	n/a	n/a	n/a
4.587007	2	cue_social_high	n/a	32	8	n/a	n/a	n/a
11.393840	2	cue_social	n/a	32	7	n/a	n/a	n/a
11.393840	2	cue_social_high	n/a	32	8	n/a	n/a	n/a
19.039125	2	cue_social	n/a	16	-9	n/a	n/a	n/a
19.039125	2	cue_social_low	n/a	16	-8	n/a	n/a	n/a
28.267690	2	cue_nonsocial	n/a	32	8	n/a	n/a	n/a
28.267690	2	cue_nonsocial_high	n/a	32	7	n/a	n/a	n/a
36.031406	2	cue_social	n/a	16	-9	n/a	n/a	n/a
36.031406	2	cue_social_low	n/a	16	-8	n/a	n/a	n/a
42.831764	2	cue_social	n/a	32	7	n/a	n/a	n/a
42.831764	2	cue_social_high	n/a	32	8	n/a	n/a	n/a
50.402493	2	cue_nonsocial	n/a	32	8	n/a	n/a	n/a
50.402493	2	cue_nonsocial_high	n/a	32	7	n/a	n/a	n/a
58.135166	2	cue_social	n/a	32	7	n/a	n/a	n/a
58.135166	2	cue_social_high	n/a	32	8	n/a	n/a	n/a
65.720985	2	cue_social	n/a	16	-9	n/a	n/a	n/a
65.720985	2	cue_social_low	n/a	16	-8	n/a	n/a	n/a
72.534874	2	cue_nonsocial	n/a	32	8	n/a	n/a	n/a
72.534874	2	cue_nonsocial_high	n/a	32	7	n/a	n/a	n/a
79.367440	2	cue_nonsocial	n/a	16	-8	n/a	n/a	n/a
79.367440	2	cue_nonsocial_low	n/a	16	-9	n/a	n/a	n/a
87.017845	2	cue_nonsocial	n/a	32	8	n/a	n/a	n/a
87.017845	2	cue_nonsocial_high	n/a	32	7	n/a	n/a	n/a
96.355780	2	cue_social	n/a	32	7	n/a	n/a	n/a
96.355780	2	cue_social_high	n/a	32	8	n/a	n/a	n/a
103.102260	2	cue_nonsocial	n/a	16	-8	n/a	n/a	n/a
103.102260	2	cue_nonsocial_low	n/a	16	-9	n/a	n/a	n/a
109.934340	2	cue_nonsocial	n/a	16	-8	n/a	n/a	n/a
109.934340	2	cue_nonsocial_low	n/a	16	-9	n/a	n/a	n/a
116.842950	2	cue_social	n/a	16	-9	n/a	n/a	n/a
116.842950	2	cue_social_low	n/a	16	-8	n/a	n/a	n/a
123.601340	2	cue_nonsocial	n/a	16	-8	n/a	n/a	n/a
123.601340	2	cue_nonsocial_low	n/a	16	-9	n/a	n/a	n/a
134.488280	2	cue_social	n/a	16	-9	n/a	n/a	n/a
134.488280	2	cue_social_low	n/a	16	-8	n/a	n/a	n/a
142.117680	2	cue_nonsocial	n/a	16	-8	n/a	n/a	n/a
142.117680	2	cue_nonsocial_low	n/a	16	-9	n/a	n/a	n/a
149.046140	2	cue_social	n/a	16	-9	n/a	n/a	n/a
149.046140	2	cue_social_low	n/a	16	-8	n/a	n/a	n/a
155.785050	2	cue_nonsocial	n/a	16	-8	n/a	n/a	n/a
155.785050	2	cue_nonsocial_low	n/a	16	-9	n/a	n/a	n/a
165.034000	2	cue_nonsocial	n/a	32	8	n/a	n/a	n/a
165.034000	2	cue_nonsocial_high	n/a	32	7	n/a	n/a	n/a
172.733660	2	cue_social	n/a	32	7	n/a	n/a	n/a
172.733660	2	cue_social_high	n/a	32	8	n/a	n/a	n/a
182.031800	2	cue_social	n/a	32	7	n/a	n/a	n/a
182.031800	2	cue_social_high	n/a	32	8	n/a	n/a	n/a
194.513670	2	cue_social	n/a	32	7	n/a	n/a	n/a
194.513670	2	cue_social_high	n/a	32	8	n/a	n/a	n/a
201.253710	2	cue_social	n/a	16	-9	n/a	n/a	n/a
201.253710	2	cue_social_low	n/a	16	-8	n/a	n/a	n/a
208.203600	2	cue_social	n/a	16	-9	n/a	n/a	n/a
208.203600	2	cue_social_low	n/a	16	-8	n/a	n/a	n/a
214.973160	2	cue_social	n/a	32	7	n/a	n/a	n/a
214.973160	2	cue_social_high	n/a	32	8	n/a	n/a	n/a
222.640300	2	cue_social	n/a	32	7	n/a	n/a	n/a
222.640300	2	cue_social_high	n/a	32	8	n/a	n/a	n/a
231.817730	2	cue_nonsocial	n/a	32	8	n/a	n/a	n/a
231.817730	2	cue_nonsocial_high	n/a	32	7	n/a	n/a	n/a
239.530490	2	cue_social	n/a	32	7	n/a	n/a	n/a
239.530490	2	cue_social_high	n/a	32	8	n/a	n/a	n/a
246.300830	2	cue_nonsocial	n/a	16	-8	n/a	n/a	n/a
246.300830	2	cue_nonsocial_low	n/a	16	-9	n/a	n/a	n/a
253.134810	2	cue_nonsocial	n/a	32	8	n/a	n/a	n/a
253.134810	2	cue_nonsocial_high	n/a	32	7	n/a	n/a	n/a
262.383970	2	cue_nonsocial	n/a	32	8	n/a	n/a	n/a
262.383970	2	cue_nonsocial_high	n/a	32	7	n/a	n/a	n/a
269.217500	2	cue_nonsocial	n/a	16	-8	n/a	n/a	n/a
269.217500	2	cue_nonsocial_low	n/a	16	-9	n/a	n/a	n/a
276.050540	2	cue_nonsocial	n/a	16	-8	n/a	n/a	n/a
276.050540	2	cue_nonsocial_low	n/a	16	-9	n/a	n/a	n/a
283.700840	2	cue_nonsocial	n/a	32	8	n/a	n/a	n/a
283.700840	2	cue_nonsocial_high	n/a	32	7	n/a	n/a	n/a
294.567630	2	cue_nonsocial	n/a	16	-8	n/a	n/a	n/a
294.567630	2	cue_nonsocial_low	n/a	16	-9	n/a	n/a	n/a
303.817470	2	cue_nonsocial	n/a	16	-8	n/a	n/a	n/a
303.817470	2	cue_nonsocial_low	n/a	16	-9	n/a	n/a	n/a
310.722000	2	cue_social	n/a	16	-9	n/a	n/a	n/a
310.722000	2	cue_social_low	n/a	16	-8	n/a	n/a	n/a
321.517200	2	cue_nonsocial	n/a	32	8	n/a	n/a	n/a
321.517200	2	cue_nonsocial_high	n/a	32	7	n/a	n/a	n/a
328.408450	2	cue_social	n/a	32	7	n/a	n/a	n/a
328.408450	2	cue_social_high	n/a	32	8	n/a	n/a	n/a
335.184050	2	cue_nonsocial	n/a	32	8	n/a	n/a	n/a
335.184050	2	cue_nonsocial_high	n/a	32	7	n/a	n/a	n/a
342.096340	2	cue_social	n/a	16	-9	n/a	n/a	n/a
342.096340	2	cue_social_low	n/a	16	-8	n/a	n/a	n/a
349.734560	2	cue_social	n/a	16	-9	n/a	n/a	n/a
349.734560	2	cue_social_low	n/a	16	-8	n/a	n/a	n/a
356.500340	2	cue_nonsocial	n/a	32	8	n/a	n/a	n/a
356.500340	2	cue_nonsocial_high	n/a	32	7	n/a	n/a	n/a
364.195160	2	cue_social	n/a	32	7	n/a	n/a	n/a
364.195160	2	cue_social_high	n/a	32	8	n/a	n/a	n/a
370.967160	2	cue_nonsocial	n/a	16	-8	n/a	n/a	n/a
370.967160	2	cue_nonsocial_low	n/a	16	-9	n/a	n/a	n/a
6.523182	1.750384	dec_social_choice	1.750384	32.000000	n/a	8	1.822917e-02	1.822917e-02
6.523182	1.750384	dec_choice	1.750384	32.000000	n/a	8	1.953125e-02	1.953125e-02
6.523182	1.750384	dec_social_accept	1.750384	32.000000	n/a	8	1.822917e-02	1.822917e-02
6.523182	1.750384	dec_accept	1.750384	32.000000	n/a	8	1.953125e-02	1.953125e-02
6.523182	1.750384	dec_social_high	1.750384	32.000000	n/a	8	1.953125e-02	1.953125e-02
6.523182	1.750384	dec_social_accept_high	1.750384	32.000000	n/a	8	1.953125e-02	1.953125e-02
13.357949	1.764806	dec_social_choice	1.764806	32.000000	n/a	3	-1.380208e-01	-1.380208e-01
13.357949	1.764806	dec_choice	1.764806	32.000000	n/a	3	-1.367188e-01	-1.367188e-01
13.357949	1.764806	dec_social_accept	1.764806	32.000000	n/a	3	-1.380208e-01	-1.380208e-01
13.357949	1.764806	dec_accept	1.764806	32.000000	n/a	3	-1.367188e-01	-1.367188e-01
13.357949	1.764806	dec_social_low	1.764806	32.000000	n/a	3	-1.367188e-01	-1.367188e-01
13.357949	1.764806	dec_social_accept_low	1.764806	32.000000	n/a	3	-1.367188e-01	-1.367188e-01
21.007536	1.116325	dec_social_choice	1.116325	16.000000	n/a	1	-1.692708e-01	-1.692708e-01
21.007536	1.116325	dec_choice	1.116325	16.000000	n/a	1	-1.679688e-01	-1.679688e-01
21.007536	1.116325	dec_social_accept	1.116325	16.000000	n/a	1	-1.692708e-01	-1.692708e-01
21.007536	1.116325	dec_accept	1.116325	16.000000	n/a	1	-1.679688e-01	-1.679688e-01
21.007536	1.116325	dec_social_accept_low	1.116325	16.000000	n/a	1	-1.679688e-01	-1.679688e-01
30.273184	1.433891	dec_nonsocial_choice	1.433891	32.000000	n/a	2	-1.692708e-01	-1.692708e-01
30.273184	1.433891	dec_choice	1.433891	32.000000	n/a	2	-1.705729e-01	-1.705729e-01
30.273184	1.433891	dec_nonsocial_accept	1.433891	32.000000	n/a	2	-1.692708e-01	-1.692708e-01
30.273184	1.433891	dec_accept	1.433891	32.000000	n/a	2	-1.705729e-01	-1.705729e-01
30.273184	1.433891	dec_nonsocial_low	1.433891	32.000000	n/a	2	-1.705729e-01	-1.705729e-01
30.273184	1.433891	dec_nonsocial_accept_low	1.433891	32.000000	n/a	2	-1.705729e-01	-1.705729e-01
37.924050	1.349383	dec_social_choice	1.349383	16.000000	n/a	2	-1.067708e-01	-1.067708e-01
37.924050	1.349383	dec_choice	1.349383	16.000000	n/a	2	-1.054688e-01	-1.054688e-01
37.924050	1.349383	dec_social_accept	1.349383	16.000000	n/a	2	-1.067708e-01	-1.067708e-01
37.924050	1.349383	dec_accept	1.349383	16.000000	n/a	2	-1.054688e-01	-1.054688e-01
37.924050	1.349383	dec_social_accept_low	1.349383	16.000000	n/a	2	-1.054688e-01	-1.054688e-01
44.756382	1.550609	dec_social_choice	1.550609	32.000000	n/a	8	1.822917e-02	1.822917e-02
44.756382	1.550609	dec_choice	1.550609	32.000000	n/a	8	1.953125e-02	1.953125e-02
44.756382	1.550609	dec_social_accept	1.550609	32.000000	n/a	8	1.822917e-02	1.822917e-02
44.756382	1.550609	dec_accept	1.550609	32.000000	n/a	8	1.953125e-02	1.953125e-02
44.756382	1.550609	dec_social_high	1.550609	32.000000	n/a	8	1.953125e-02	1.953125e-02
44.756382	1.550609	dec_social_accept_high	1.550609	32.000000	n/a	8	1.953125e-02	1.953125e-02
52.407074	1.115863	dec_nonsocial_choice	1.115863	32.000000	n/a	8	1.822917e-02	1.822917e-02
52.407074	1.115863	dec_choice	1.115863	32.000000	n/a	8	1.692708e-02	1.692708e-02
52.407074	1.115863	dec_nonsocial_accept	1.115863	32.000000	n/a	8	1.822917e-02	1.822917e-02
52.407074	1.115863	dec_accept	1.115863	32.000000	n/a	8	1.692708e-02	1.692708e-02
52.407074	1.115863	dec_nonsocial_high	1.115863	32.000000	n/a	8	1.692708e-02	1.692708e-02
52.407074	1.115863	dec_nonsocial_accept_high	1.115863	32.000000	n/a	8	1.692708e-02	1.692708e-02
60.056076	1.283553	dec_social_choice	1.283553	32.000000	n/a	3	-1.380208e-01	-1.380208e-01
60.056076	1.283553	dec_choice	1.283553	32.000000	n/a	3	-1.367188e-01	-1.367188e-01
60.056076	1.283553	dec_social_accept	1.283553	32.000000	n/a	3	-1.380208e-01	-1.380208e-01
60.056076	1.283553	dec_accept	1.283553	32.000000	n/a	3	-1.367188e-01	-1.367188e-01
60.056076	1.283553	dec_social_low	1.283553	32.000000	n/a	3	-1.367188e-01	-1.367188e-01
60.056076	1.283553	dec_social_accept_low	1.283553	32.000000	n/a	3	-1.367188e-01	-1.367188e-01
67.707010	1.233569	dec_social_choice	1.233569	16.000000	n/a	8	2.682292e-01	2.682292e-01
67.707010	1.233569	dec_choice	1.233569	16.000000	n/a	8	2.695312e-01	2.695312e-01
67.707010	1.233569	dec_social_accept	1.233569	16.000000	n/a	8	2.682292e-01	2.682292e-01
67.707010	1.233569	dec_accept	1.233569	16.000000	n/a	8	2.695312e-01	2.695312e-01
67.707010	1.233569	dec_social_accept_high	1.233569	16.000000	n/a	8	2.695312e-01	2.695312e-01
74.540115	1.116620	dec_nonsocial_choice	1.116620	32.000000	n/a	8	1.822917e-02	1.822917e-02
74.540115	1.116620	dec_choice	1.116620	32.000000	n/a	8	1.692708e-02	1.692708e-02
74.540115	1.116620	dec_nonsocial_accept	1.116620	32.000000	n/a	8	1.822917e-02	1.822917e-02
74.540115	1.116620	dec_accept	1.116620	32.000000	n/a	8	1.692708e-02	1.692708e-02
74.540115	1.116620	dec_nonsocial_high	1.116620	32.000000	n/a	8	1.692708e-02	1.692708e-02
74.540115	1.116620	dec_nonsocial_accept_high	1.116620	32.000000	n/a	8	1.692708e-02	1.692708e-02
81.372850	1.100830	dec_nonsocial_choice	1.100830	16.000000	n/a	8	2.682292e-01	2.682292e-01
81.372850	1.100830	dec_choice	1.100830	16.000000	n/a	8	2.669271e-01	2.669271e-01
81.372850	1.100830	dec_nonsocial_accept	1.100830	16.000000	n/a	8	2.682292e-01	2.682292e-01
81.372850	1.100830	dec_accept	1.100830	16.000000	n/a	8	2.669271e-01	2.669271e-01
81.372850	1.100830	dec_nonsocial_high	1.100830	16.000000	n/a	8	2.669271e-01	2.669271e-01
81.372850	1.100830	dec_nonsocial_accept_high	1.100830	16.000000	n/a	8	2.669271e-01	2.669271e-01
89.023110	1.300078	dec_nonsocial_choice	1.300078	32.000000	n/a	8	1.822917e-02	1.822917e-02
89.023110	1.300078	dec_choice	1.300078	32.000000	n/a	8	1.692708e-02	1.692708e-02
89.023110	1.300078	dec_nonsocial_accept	1.300078	32.000000	n/a	8	1.822917e-02	1.822917e-02
89.023110	1.300078	dec_accept	1.300078	32.000000	n/a	8	1.692708e-02	1.692708e-02
89.023110	1.300078	dec_nonsocial_accept_high	1.300078	32.000000	n/a	8	1.953125e-02	1.953125e-02
98.274110	1.299442	dec_social_choice	1.299442	32.000000	n/a	2	-1.692708e-01	-1.692708e-01
98.274110	1.299442	dec_choice	1.299442	32.000000	n/a	2	-1.679688e-01	-1.679688e-01
98.274110	1.299442	dec_social_accept	1.299442	32.000000	n/a	2	-1.692708e-01	-1.692708e-01
98.274110	1.299442	dec_accept	1.299442	32.000000	n/a	2	-1.679688e-01	-1.679688e-01
98.274110	1.299442	dec_social_low	1.299442	32.000000	n/a	2	-1.679688e-01	-1.679688e-01
98.274110	1.299442	dec_social_accept_low	1.299442	32.000000	n/a	2	-1.679688e-01	-1.679688e-01
105.107120	1.515377	dec_nonsocial_choice	1.515377	16.000000	n/a	2	-1.067708e-01	-1.067708e-01
105.107120	1.515377	dec_choice	1.515377	16.000000	n/a	2	-1.080729e-01	-1.080729e-01
105.107120	1.515377	dec_nonsocial_accept	1.515377	16.000000	n/a	2	-1.067708e-01	-1.067708e-01
105.107120	1.515377	dec_accept	1.515377	16.000000	n/a	2	-1.080729e-01	-1.080729e-01
105.107120	1.515377	dec_nonsocial_low	1.515377	16.000000	n/a	2	-1.080729e-01	-1.080729e-01
105.107120	1.515377	dec_nonsocial_accept_low	1.515377	16.000000	n/a	2	-1.080729e-01	-1.080729e-01
111.940125	1.500040	dec_nonsocial_choice	1.500040	16.000000	n/a	2	-1.067708e-01	-1.067708e-01
111.940125	1.500040	dec_choice	1.500040	16.000000	n/a	2	-1.080729e-01	-1.080729e-01
111.940125	1.500040	dec_nonsocial_accept	1.500040	16.000000	n/a	2	-1.067708e-01	-1.067708e-01
111.940125	1.500040	dec_accept	1.500040	16.000000	n/a	2	-1.080729e-01	-1.080729e-01
111.940125	1.500040	dec_nonsocial_low	1.500040	16.000000	n/a	2	-1.080729e-01	-1.080729e-01
111.940125	1.500040	dec_nonsocial_accept_low	1.500040	16.000000	n/a	2	-1.080729e-01	-1.080729e-01
118.773100	1.400291	dec_social_choice	1.400291	16.000000	n/a	1	-1.692708e-01	-1.692708e-01
118.773100	1.400291	dec_choice	1.400291	16.000000	n/a	1	-1.679688e-01	-1.679688e-01
118.773100	1.400291	dec_social_accept	1.400291	16.000000	n/a	1	-1.692708e-01	-1.692708e-01
118.773100	1.400291	dec_accept	1.400291	16.000000	n/a	1	-1.679688e-01	-1.679688e-01
118.773100	1.400291	dec_social_low	1.400291	16.000000	n/a	1	-1.679688e-01	-1.679688e-01
118.773100	1.400291	dec_social_accept_low	1.400291	16.000000	n/a	1	-1.679688e-01	-1.679688e-01
125.606670	1.333465	dec_nonsocial_choice	1.333465	16.000000	n/a	8	2.682292e-01	2.682292e-01
125.606670	1.333465	dec_choice	1.333465	16.000000	n/a	8	2.669271e-01	2.669271e-01
125.606670	1.333465	dec_nonsocial_accept	1.333465	16.000000	n/a	8	2.682292e-01	2.682292e-01
125.606670	1.333465	dec_accept	1.333465	16.000000	n/a	8	2.669271e-01	2.669271e-01
125.606670	1.333465	dec_nonsocial_high	1.333465	16.000000	n/a	8	2.669271e-01	2.669271e-01
125.606670	1.333465	dec_nonsocial_accept_high	1.333465	16.000000	n/a	8	2.669271e-01	2.669271e-01
136.472270	1.483787	dec_social_choice	1.483787	16.000000	n/a	8	2.682292e-01	2.682292e-01
136.472270	1.483787	dec_choice	1.483787	16.000000	n/a	8	2.695312e-01	2.695312e-01
136.472270	1.483787	dec_social_accept	1.483787	16.000000	n/a	8	2.682292e-01	2.682292e-01
136.472270	1.483787	dec_accept	1.483787	16.000000	n/a	8	2.695312e-01	2.695312e-01
136.472270	1.483787	dec_social_high	1.483787	16.000000	n/a	8	2.695312e-01	2.695312e-01
136.472270	1.483787	dec_social_accept_high	1.483787	16.000000	n/a	8	2.695312e-01	2.695312e-01
144.124180	0.865367	dec_nonsocial_choice	0.865367	16.000000	n/a	1	-1.692708e-01	-1.692708e-01
144.124180	0.865367	dec_choice	0.865367	16.000000	n/a	1	-1.705729e-01	-1.705729e-01
144.124180	0.865367	dec_nonsocial_accept	0.865367	16.000000	n/a	1	-1.692708e-01	-1.692708e-01
144.124180	0.865367	dec_accept	0.865367	16.000000	n/a	1	-1.705729e-01	-1.705729e-01
144.124180	0.865367	dec_nonsocial_accept_low	0.865367	16.000000	n/a	1	-1.679688e-01	-1.679688e-01
150.957280	1.265810	dec_social_choice	1.265810	16.000000	n/a	8	2.682292e-01	2.682292e-01
150.957280	1.265810	dec_choice	1.265810	16.000000	n/a	8	2.695312e-01	2.695312e-01
150.957280	1.265810	dec_social_accept	1.265810	16.000000	n/a	8	2.682292e-01	2.682292e-01
150.957280	1.265810	dec_accept	1.265810	16.000000	n/a	8	2.695312e-01	2.695312e-01
150.957280	1.265810	dec_social_high	1.265810	16.000000	n/a	8	2.695312e-01	2.695312e-01
150.957280	1.265810	dec_social_accept_high	1.265810	16.000000	n/a	8	2.695312e-01	2.695312e-01
157.790160	1.200189	dec_nonsocial_choice	1.200189	16.000000	n/a	1	-1.692708e-01	-1.692708e-01
157.790160	1.200189	dec_choice	1.200189	16.000000	n/a	1	-1.705729e-01	-1.705729e-01
157.790160	1.200189	dec_nonsocial_accept	1.200189	16.000000	n/a	1	-1.692708e-01	-1.692708e-01
157.790160	1.200189	dec_accept	1.200189	16.000000	n/a	1	-1.705729e-01	-1.705729e-01
157.790160	1.200189	dec_nonsocial_low	1.200189	16.000000	n/a	1	-1.705729e-01	-1.705729e-01
157.790160	1.200189	dec_nonsocial_accept_low	1.200189	16.000000	n/a	1	-1.705729e-01	-1.705729e-01
167.040310	1.483031	dec_nonsocial_choice	1.483031	32.000000	n/a	16	2.682292e-01	2.682292e-01
167.040310	1.483031	dec_choice	1.483031	32.000000	n/a	16	2.669271e-01	2.669271e-01
167.040310	1.483031	dec_nonsocial_accept	1.483031	32.000000	n/a	16	2.682292e-01	2.682292e-01
167.040310	1.483031	dec_accept	1.483031	32.000000	n/a	16	2.669271e-01	2.669271e-01
167.040310	1.483031	dec_nonsocial_high	1.483031	32.000000	n/a	16	2.669271e-01	2.669271e-01
167.040310	1.483031	dec_nonsocial_accept_high	1.483031	32.000000	n/a	16	2.669271e-01	2.669271e-01
174.690480	1.399787	dec_social_choice	1.399787	32.000000	n/a	8	1.822917e-02	1.822917e-02
174.690480	1.399787	dec_choice	1.399787	32.000000	n/a	8	1.953125e-02	1.953125e-02
174.690480	1.399787	dec_social_accept	1.399787	32.000000	n/a	8	1.822917e-02	1.822917e-02
174.690480	1.399787	dec_accept	1.399787	32.000000	n/a	8	1.953125e-02	1.953125e-02
174.690480	1.399787	dec_social_high	1.399787	32.000000	n/a	8	1.953125e-02	1.953125e-02
174.690480	1.399787	dec_social_accept_high	1.399787	32.000000	n/a	8	1.953125e-02	1.953125e-02
183.939710	0.933578	dec_social_choice	0.933578	32.000000	n/a	2	-1.692708e-01	-1.692708e-01
183.939710	0.933578	dec_choice	0.933578	32.000000	n/a	2	-1.679688e-01	-1.679688e-01
183.939710	0.933578	dec_social_accept	0.933578	32.000000	n/a	2	-1.692708e-01	-1.692708e-01
183.939710	0.933578	dec_accept	0.933578	32.000000	n/a	2	-1.679688e-01	-1.679688e-01
183.939710	0.933578	dec_social_accept_low	0.933578	32.000000	n/a	2	-1.679688e-01	-1.679688e-01
196.423200	1.350277	dec_social_choice	1.350277	32.000000	n/a	16	2.682292e-01	2.682292e-01
196.423200	1.350277	dec_choice	1.350277	32.000000	n/a	16	2.695312e-01	2.695312e-01
196.423200	1.350277	dec_social_accept	1.350277	32.000000	n/a	16	2.682292e-01	2.682292e-01
196.423200	1.350277	dec_accept	1.350277	32.000000	n/a	16	2.695312e-01	2.695312e-01
196.423200	1.350277	dec_social_accept_high	1.350277	32.000000	n/a	16	2.695312e-01	2.695312e-01
203.256200	0.933987	dec_social_choice	0.933987	16.000000	n/a	8	2.682292e-01	2.682292e-01
203.256200	0.933987	dec_choice	0.933987	16.000000	n/a	8	2.695312e-01	2.695312e-01
203.256200	0.933987	dec_social_accept	0.933987	16.000000	n/a	8	2.682292e-01	2.682292e-01
203.256200	0.933987	dec_accept	0.933987	16.000000	n/a	8	2.695312e-01	2.695312e-01
203.256200	0.933987	dec_social_accept_high	0.933987	16.000000	n/a	8	2.695312e-01	2.695312e-01
210.090210	1.015817	dec_social_choice	1.015817	16.000000	n/a	2	-1.067708e-01	-1.067708e-01
210.090210	1.015817	dec_choice	1.015817	16.000000	n/a	2	-1.054688e-01	-1.054688e-01
210.090210	1.015817	dec_social_accept	1.015817	16.000000	n/a	2	-1.067708e-01	-1.067708e-01
210.090210	1.015817	dec_accept	1.015817	16.000000	n/a	2	-1.054688e-01	-1.054688e-01
210.090210	1.015817	dec_social_accept_low	1.015817	16.000000	n/a	2	-1.054688e-01	-1.054688e-01
216.923190	1.083461	dec_social_choice	1.083461	32.000000	n/a	16	2.682292e-01	2.682292e-01
216.923190	1.083461	dec_choice	1.083461	32.000000	n/a	16	2.695312e-01	2.695312e-01
216.923190	1.083461	dec_social_accept	1.083461	32.000000	n/a	16	2.682292e-01	2.682292e-01
216.923190	1.083461	dec_accept	1.083461	32.000000	n/a	16	2.695312e-01	2.695312e-01
216.923190	1.083461	dec_social_high	1.083461	32.000000	n/a	16	2.695312e-01	2.695312e-01
216.923190	1.083461	dec_social_accept_high	1.083461	32.000000	n/a	16	2.695312e-01	2.695312e-01
224.572140	1.068024	dec_social_choice	1.068024	32.000000	n/a	3	-1.380208e-01	-1.380208e-01
224.572140	1.068024	dec_choice	1.068024	32.000000	n/a	3	-1.367188e-01	-1.367188e-01
224.572140	1.068024	dec_social_accept	1.068024	32.000000	n/a	3	-1.380208e-01	-1.380208e-01
224.572140	1.068024	dec_accept	1.068024	32.000000	n/a	3	-1.367188e-01	-1.367188e-01
224.572140	1.068024	dec_social_accept_low	1.068024	32.000000	n/a	3	-1.367188e-01	-1.367188e-01
233.823000	1.166467	dec_nonsocial_choice	1.166467	32.000000	n/a	16	2.682292e-01	2.682292e-01
233.823000	1.166467	dec_choice	1.166467	32.000000	n/a	16	2.669271e-01	2.669271e-01
233.823000	1.166467	dec_nonsocial_accept	1.166467	32.000000	n/a	16	2.682292e-01	2.682292e-01
233.823000	1.166467	dec_accept	1.166467	32.000000	n/a	16	2.669271e-01	2.669271e-01
233.823000	1.166467	dec_nonsocial_high	1.166467	32.000000	n/a	16	2.669271e-01	2.669271e-01
233.823000	1.166467	dec_nonsocial_accept_high	1.166467	32.000000	n/a	16	2.669271e-01	2.669271e-01
241.472950	0.950093	dec_social_choice	0.950093	32.000000	n/a	8	1.822917e-02	1.822917e-02
241.472950	0.950093	dec_choice	0.950093	32.000000	n/a	8	1.953125e-02	1.953125e-02
241.472950	0.950093	dec_social_accept	0.950093	32.000000	n/a	8	1.822917e-02	1.822917e-02
241.472950	0.950093	dec_accept	0.950093	32.000000	n/a	8	1.953125e-02	1.953125e-02
241.472950	0.950093	dec_social_accept_high	0.950093	32.000000	n/a	8	1.953125e-02	1.953125e-02
248.306290	1.566513	dec_nonsocial_choice	1.566513	16.000000	n/a	2	-1.067708e-01	-1.067708e-01
248.306290	1.566513	dec_choice	1.566513	16.000000	n/a	2	-1.080729e-01	-1.080729e-01
248.306290	1.566513	dec_nonsocial_accept	1.566513	16.000000	n/a	2	-1.067708e-01	-1.067708e-01
248.306290	1.566513	dec_accept	1.566513	16.000000	n/a	2	-1.080729e-01	-1.080729e-01
248.306290	1.566513	dec_nonsocial_low	1.566513	16.000000	n/a	2	-1.080729e-01	-1.080729e-01
248.306290	1.566513	dec_nonsocial_accept_low	1.566513	16.000000	n/a	2	-1.080729e-01	-1.080729e-01
255.139340	1.200669	dec_nonsocial_choice	1.200669	32.000000	n/a	16	2.682292e-01	2.682292e-01
255.139340	1.200669	dec_choice	1.200669	32.000000	n/a	16	2.669271e-01	2.669271e-01
255.139340	1.200669	dec_nonsocial_accept	1.200669	32.000000	n/a	16	2.682292e-01	2.682292e-01
255.139340	1.200669	dec_accept	1.200669	32.000000	n/a	16	2.669271e-01	2.669271e-01
255.139340	1.200669	dec_nonsocial_high	1.200669	32.000000	n/a	16	2.669271e-01	2.669271e-01
255.139340	1.200669	dec_nonsocial_accept_high	1.200669	32.000000	n/a	16	2.669271e-01	2.669271e-01
264.390000	1.282936	dec_nonsocial_choice	1.282936	32.000000	n/a	2	-1.692708e-01	-1.692708e-01
264.390000	1.282936	dec_choice	1.282936	32.000000	n/a	2	-1.705729e-01	-1.705729e-01
264.390000	1.282936	dec_nonsocial_accept	1.282936	32.000000	n/a	2	-1.692708e-01	-1.692708e-01
264.390000	1.282936	dec_accept	1.282936	32.000000	n/a	2	-1.705729e-01	-1.705729e-01
264.390000	1.282936	dec_nonsocial_low	1.282936	32.000000	n/a	2	-1.705729e-01	-1.705729e-01
264.390000	1.282936	dec_nonsocial_accept_low	1.282936	32.000000	n/a	2	-1.705729e-01	-1.705729e-01
271.223300	1.583120	dec_nonsocial_choice	1.583120	16.000000	n/a	8	2.682292e-01	2.682292e-01
271.223300	1.583120	dec_choice	1.583120	16.000000	n/a	8	2.669271e-01	2.669271e-01
271.223300	1.583120	dec_nonsocial_accept	1.583120	16.000000	n/a	8	2.682292e-01	2.682292e-01
271.223300	1.583120	dec_accept	1.583120	16.000000	n/a	8	2.669271e-01	2.669271e-01
271.223300	1.583120	dec_nonsocial_accept_high	1.583120	16.000000	n/a	8	2.695312e-01	2.695312e-01
278.056030	1.500515	dec_nonsocial_choice	1.500515	16.000000	n/a	2	-1.067708e-01	-1.067708e-01
278.056030	1.500515	dec_choice	1.500515	16.000000	n/a	2	-1.080729e-01	-1.080729e-01
278.056030	1.500515	dec_nonsocial_accept	1.500515	16.000000	n/a	2	-1.067708e-01	-1.067708e-01
278.056030	1.500515	dec_accept	1.500515	16.000000	n/a	2	-1.080729e-01	-1.080729e-01
278.056030	1.500515	dec_nonsocial_low	1.500515	16.000000	n/a	2	-1.080729e-01	-1.080729e-01
278.056030	1.500515	dec_nonsocial_accept_low	1.500515	16.000000	n/a	2	-1.080729e-01	-1.080729e-01
285.706700	1.516273	dec_nonsocial_choice	1.516273	32.000000	n/a	8	1.822917e-02	1.822917e-02
285.706700	1.516273	dec_choice	1.516273	32.000000	n/a	8	1.692708e-02	1.692708e-02
285.706700	1.516273	dec_nonsocial_accept	1.516273	32.000000	n/a	8	1.822917e-02	1.822917e-02
285.706700	1.516273	dec_accept	1.516273	32.000000	n/a	8	1.692708e-02	1.692708e-02
285.706700	1.516273	dec_nonsocial_accept_high	1.516273	32.000000	n/a	8	1.953125e-02	1.953125e-02
296.573300	1.599488	dec_nonsocial_choice	1.599488	16.000000	n/a	2	-1.067708e-01	-1.067708e-01
296.573300	1.599488	dec_choice	1.599488	16.000000	n/a	2	-1.080729e-01	-1.080729e-01
296.573300	1.599488	dec_nonsocial_accept	1.599488	16.000000	n/a	2	-1.067708e-01	-1.067708e-01
296.573300	1.599488	dec_accept	1.599488	16.000000	n/a	2	-1.080729e-01	-1.080729e-01
296.573300	1.599488	dec_nonsocial_low	1.599488	16.000000	n/a	2	-1.080729e-01	-1.080729e-01
296.573300	1.599488	dec_nonsocial_accept_low	1.599488	16.000000	n/a	2	-1.080729e-01	-1.080729e-01
305.824280	1.264714	dec_nonsocial_choice	1.264714	16.000000	n/a	1	-1.692708e-01	-1.692708e-01
305.824280	1.264714	dec_choice	1.264714	16.000000	n/a	1	-1.705729e-01	-1.705729e-01
305.824280	1.264714	dec_nonsocial_accept	1.264714	16.000000	n/a	1	-1.692708e-01	-1.692708e-01
305.824280	1.264714	dec_accept	1.264714	16.000000	n/a	1	-1.705729e-01	-1.705729e-01
305.824280	1.264714	dec_nonsocial_accept_low	1.264714	16.000000	n/a	1	-1.679688e-01	-1.679688e-01
312.655330	0.951153	dec_social_choice	0.951153	16.000000	n/a	4	1.822917e-02	1.822917e-02
312.655330	0.951153	dec_choice	0.951153	16.000000	n/a	4	1.953125e-02	1.953125e-02
312.655330	0.951153	dec_social_accept	0.951153	16.000000	n/a	4	1.822917e-02	1.822917e-02
312.655330	0.951153	dec_accept	0.951153	16.000000	n/a	4	1.953125e-02	1.953125e-02
312.655330	0.951153	dec_social_accept_high	0.951153	16.000000	n/a	4	1.953125e-02	1.953125e-02
323.523320	1.433546	dec_nonsocial_choice	1.433546	32.000000	n/a	8	1.822917e-02	1.822917e-02
323.523320	1.433546	dec_choice	1.433546	32.000000	n/a	8	1.692708e-02	1.692708e-02
323.523320	1.433546	dec_nonsocial_accept	1.433546	32.000000	n/a	8	1.822917e-02	1.822917e-02
323.523320	1.433546	dec_accept	1.433546	32.000000	n/a	8	1.692708e-02	1.692708e-02
323.523320	1.433546	dec_nonsocial_accept_high	1.433546	32.000000	n/a	8	1.953125e-02	1.953125e-02
330.356300	0.883378	dec_social_choice	0.883378	32.000000	n/a	2	-1.692708e-01	-1.692708e-01
330.356300	0.883378	dec_choice	0.883378	32.000000	n/a	2	-1.679688e-01	-1.679688e-01
330.356300	0.883378	dec_social_accept	0.883378	32.000000	n/a	2	-1.692708e-01	-1.692708e-01
330.356300	0.883378	dec_accept	0.883378	32.000000	n/a	2	-1.679688e-01	-1.679688e-01
330.356300	0.883378	dec_social_accept_low	0.883378	32.000000	n/a	2	-1.679688e-01	-1.679688e-01
337.190300	1.815744	dec_nonsocial_choice	1.815744	32.000000	n/a	3	-1.380208e-01	-1.380208e-01
337.190300	1.815744	dec_choice	1.815744	32.000000	n/a	3	-1.393229e-01	-1.393229e-01
337.190300	1.815744	dec_nonsocial_accept	1.815744	32.000000	n/a	3	-1.380208e-01	-1.380208e-01
337.190300	1.815744	dec_accept	1.815744	32.000000	n/a	3	-1.393229e-01	-1.393229e-01
337.190300	1.815744	dec_nonsocial_accept_low	1.815744	32.000000	n/a	3	-1.367188e-01	-1.367188e-01
344.022830	1.266055	dec_social_choice	1.266055	16.000000	n/a	2	-1.067708e-01	-1.067708e-01
344.022830	1.266055	dec_choice	1.266055	16.000000	n/a	2	-1.054688e-01	-1.054688e-01
344.022830	1.266055	dec_social_accept	1.266055	16.000000	n/a	2	-1.067708e-01	-1.067708e-01
344.022830	1.266055	dec_accept	1.266055	16.000000	n/a	2	-1.054688e-01	-1.054688e-01
344.022830	1.266055	dec_social_accept_low	1.266055	16.000000	n/a	2	-1.054688e-01	-1.054688e-01
351.673340	0.883176	dec_social_choice	0.883176	16.000000	n/a	1	-1.692708e-01	-1.692708e-01
351.673340	0.883176	dec_choice	0.883176	16.000000	n/a	1	-1.679688e-01	-1.679688e-01
351.673340	0.883176	dec_social_accept	0.883176	16.000000	n/a	1	-1.692708e-01	-1.692708e-01
351.673340	0.883176	dec_accept	0.883176	16.000000	n/a	1	-1.679688e-01	-1.679688e-01
351.673340	0.883176	dec_social_accept_low	0.883176	16.000000	n/a	1	-1.679688e-01	-1.679688e-01
358.506350	1.250035	dec_nonsocial_choice	1.250035	32.000000	n/a	8	1.822917e-02	1.822917e-02
358.506350	1.250035	dec_choice	1.250035	32.000000	n/a	8	1.692708e-02	1.692708e-02
358.506350	1.250035	dec_nonsocial_accept	1.250035	32.000000	n/a	8	1.822917e-02	1.822917e-02
358.506350	1.250035	dec_accept	1.250035	32.000000	n/a	8	1.692708e-02	1.692708e-02
358.506350	1.250035	dec_nonsocial_accept_high	1.250035	32.000000	n/a	8	1.953125e-02	1.953125e-02
366.139500	1.399982	dec_social_choice	1.399982	32.000000	n/a	8	1.822917e-02	1.822917e-02
366.139500	1.399982	dec_choice	1.399982	32.000000	n/a	8	1.953125e-02	1.953125e-02
366.139500	1.399982	dec_social_accept	1.399982	32.000000	n/a	8	1.822917e-02	1.822917e-02
366.139500	1.399982	dec_accept	1.399982	32.000000	n/a	8	1.953125e-02	1.953125e-02
366.139500	1.399982	dec_social_accept_high	1.399982	32.000000	n/a	8	1.953125e-02	1.953125e-02
372.974030	1.614988	dec_nonsocial_choice	1.614988	16.000000	n/a	1	-1.692708e-01	-1.692708e-01
372.974030	1.614988	dec_choice	1.614988	16.000000	n/a	1	-1.705729e-01	-1.705729e-01
372.974030	1.614988	dec_nonsocial_accept	1.614988	16.000000	n/a	1	-1.692708e-01	-1.692708e-01
372.974030	1.614988	dec_accept	1.614988	16.000000	n/a	1	-1.705729e-01	-1.705729e-01
372.974030	1.614988	dec_nonsocial_low	1.614988	16.000000	n/a	1	-1.705729e-01	-1.705729e-01
372.974030	1.614988	dec_nonsocial_accept_low	1.614988	16.000000	n/a	1	-1.705729e-01	-1.705729e-01
