onset	duration	trial_type	response_time	Endowment	Endowment_pmod	Decision	Decision_pmod	Offer_pmod
4.581155	2	cue_social	n/a	32	8	n/a	n/a	n/a
4.581155	2	cue_social_high	n/a	32	8	n/a	n/a	n/a
11.339196	2	cue_nonsocial	n/a	32	8	n/a	n/a	n/a
11.339196	2	cue_nonsocial_high	n/a	32	8	n/a	n/a	n/a
20.605870	2	cue_nonsocial	n/a	32	8	n/a	n/a	n/a
20.605870	2	cue_nonsocial_high	n/a	32	8	n/a	n/a	n/a
27.534157	2	cue_social	n/a	16	-8	n/a	n/a	n/a
27.534157	2	cue_social_low	n/a	16	-8	n/a	n/a	n/a
35.088970	2	cue_nonsocial	n/a	16	-8	n/a	n/a	n/a
35.088970	2	cue_nonsocial_low	n/a	16	-8	n/a	n/a	n/a
42.739418	2	cue_nonsocial	n/a	16	-8	n/a	n/a	n/a
42.739418	2	cue_nonsocial_low	n/a	16	-8	n/a	n/a	n/a
50.389088	2	cue_nonsocial	n/a	32	8	n/a	n/a	n/a
50.389088	2	cue_nonsocial_high	n/a	32	8	n/a	n/a	n/a
58.118855	2	cue_social	n/a	32	8	n/a	n/a	n/a
58.118855	2	cue_social_high	n/a	32	8	n/a	n/a	n/a
64.872220	2	cue_nonsocial	n/a	16	-8	n/a	n/a	n/a
64.872220	2	cue_nonsocial_low	n/a	16	-8	n/a	n/a	n/a
71.787285	2	cue_social	n/a	32	8	n/a	n/a	n/a
71.787285	2	cue_social_high	n/a	32	8	n/a	n/a	n/a
82.572850	2	cue_nonsocial	n/a	16	-8	n/a	n/a	n/a
82.572850	2	cue_nonsocial_low	n/a	16	-8	n/a	n/a	n/a
90.293740	2	cue_social	n/a	16	-8	n/a	n/a	n/a
90.293740	2	cue_social_low	n/a	16	-8	n/a	n/a	n/a
97.132810	2	cue_social	n/a	16	-8	n/a	n/a	n/a
97.132810	2	cue_social_low	n/a	16	-8	n/a	n/a	n/a
103.956830	2	cue_social	n/a	32	8	n/a	n/a	n/a
103.956830	2	cue_social_high	n/a	32	8	n/a	n/a	n/a
113.223755	2	cue_social	n/a	16	-8	n/a	n/a	n/a
113.223755	2	cue_social_low	n/a	16	-8	n/a	n/a	n/a
122.477100	2	cue_social	n/a	16	-8	n/a	n/a	n/a
122.477100	2	cue_social_low	n/a	16	-8	n/a	n/a	n/a
129.222060	2	cue_nonsocial	n/a	32	8	n/a	n/a	n/a
129.222060	2	cue_nonsocial_high	n/a	32	8	n/a	n/a	n/a
136.872330	2	cue_nonsocial	n/a	16	-8	n/a	n/a	n/a
136.872330	2	cue_nonsocial_low	n/a	16	-8	n/a	n/a	n/a
143.705550	2	cue_nonsocial	n/a	32	8	n/a	n/a	n/a
143.705550	2	cue_nonsocial_high	n/a	32	8	n/a	n/a	n/a
152.955080	2	cue_nonsocial	n/a	32	8	n/a	n/a	n/a
152.955080	2	cue_nonsocial_high	n/a	32	8	n/a	n/a	n/a
160.668240	2	cue_social	n/a	16	-8	n/a	n/a	n/a
160.668240	2	cue_social_low	n/a	16	-8	n/a	n/a	n/a
171.471800	2	cue_nonsocial	n/a	32	8	n/a	n/a	n/a
171.471800	2	cue_nonsocial_high	n/a	32	8	n/a	n/a	n/a
178.370100	2	cue_social	n/a	16	-8	n/a	n/a	n/a
178.370100	2	cue_social_low	n/a	16	-8	n/a	n/a	n/a
185.210740	2	cue_social	n/a	32	8	n/a	n/a	n/a
185.210740	2	cue_social_high	n/a	32	8	n/a	n/a	n/a
192.036990	2	cue_social	n/a	32	8	n/a	n/a	n/a
192.036990	2	cue_social_high	n/a	32	8	n/a	n/a	n/a
198.858640	2	cue_social	n/a	16	-8	n/a	n/a	n/a
198.858640	2	cue_social_low	n/a	16	-8	n/a	n/a	n/a
208.055100	2	cue_nonsocial	n/a	16	-8	n/a	n/a	n/a
208.055100	2	cue_nonsocial_low	n/a	16	-8	n/a	n/a	n/a
215.756120	2	cue_social	n/a	16	-8	n/a	n/a	n/a
215.756120	2	cue_social_low	n/a	16	-8	n/a	n/a	n/a
226.651410	2	cue_social	n/a	16	-8	n/a	n/a	n/a
226.651410	2	cue_social_low	n/a	16	-8	n/a	n/a	n/a
234.221510	2	cue_nonsocial	n/a	16	-8	n/a	n/a	n/a
234.221510	2	cue_nonsocial_low	n/a	16	-8	n/a	n/a	n/a
241.055110	2	cue_nonsocial	n/a	32	8	n/a	n/a	n/a
241.055110	2	cue_nonsocial_high	n/a	32	8	n/a	n/a	n/a
247.946500	2	cue_social	n/a	32	8	n/a	n/a	n/a
247.946500	2	cue_social_high	n/a	32	8	n/a	n/a	n/a
260.372070	2	cue_nonsocial	n/a	16	-8	n/a	n/a	n/a
260.372070	2	cue_nonsocial_low	n/a	16	-8	n/a	n/a	n/a
268.021760	2	cue_nonsocial	n/a	32	8	n/a	n/a	n/a
268.021760	2	cue_nonsocial_high	n/a	32	8	n/a	n/a	n/a
274.921750	2	cue_social	n/a	16	-8	n/a	n/a	n/a
274.921750	2	cue_social_low	n/a	16	-8	n/a	n/a	n/a
281.784150	2	cue_social	n/a	32	8	n/a	n/a	n/a
281.784150	2	cue_social_high	n/a	32	8	n/a	n/a	n/a
288.521800	2	cue_nonsocial	n/a	32	8	n/a	n/a	n/a
288.521800	2	cue_nonsocial_high	n/a	32	8	n/a	n/a	n/a
296.171140	2	cue_nonsocial	n/a	16	-8	n/a	n/a	n/a
296.171140	2	cue_nonsocial_low	n/a	16	-8	n/a	n/a	n/a
303.877380	2	cue_social	n/a	32	8	n/a	n/a	n/a
303.877380	2	cue_social_high	n/a	32	8	n/a	n/a	n/a
310.654800	2	cue_nonsocial	n/a	32	8	n/a	n/a	n/a
310.654800	2	cue_nonsocial_high	n/a	32	8	n/a	n/a	n/a
317.573200	2	cue_social	n/a	16	-8	n/a	n/a	n/a
317.573200	2	cue_social_low	n/a	16	-8	n/a	n/a	n/a
324.321560	2	cue_nonsocial	n/a	32	8	n/a	n/a	n/a
324.321560	2	cue_nonsocial_high	n/a	32	8	n/a	n/a	n/a
331.154940	2	cue_nonsocial	n/a	16	-8	n/a	n/a	n/a
331.154940	2	cue_nonsocial_low	n/a	16	-8	n/a	n/a	n/a
338.052580	2	cue_social	n/a	32	8	n/a	n/a	n/a
338.052580	2	cue_social_high	n/a	32	8	n/a	n/a	n/a
347.309080	2	cue_social	n/a	32	8	n/a	n/a	n/a
347.309080	2	cue_social_high	n/a	32	8	n/a	n/a	n/a
354.905120	2	cue_nonsocial	n/a	16	-8	n/a	n/a	n/a
354.905120	2	cue_nonsocial_low	n/a	16	-8	n/a	n/a	n/a
364.171140	2	cue_nonsocial	n/a	16	-8	n/a	n/a	n/a
364.171140	2	cue_nonsocial_low	n/a	16	-8	n/a	n/a	n/a
371.074040	2	cue_social	n/a	32	8	n/a	n/a	n/a
371.074040	2	cue_social_high	n/a	32	8	n/a	n/a	n/a
6.511941	1.682622	dec_social_choice	1.682622	32.000000	n/a	3	-1.360677e-01	-1.360677e-01
6.511941	1.682622	dec_choice	1.682622	32.000000	n/a	3	-1.367188e-01	-1.367188e-01
6.511941	1.682622	dec_social_accept	1.682622	32.000000	n/a	3	-1.360677e-01	-1.360677e-01
6.511941	1.682622	dec_accept	1.682622	32.000000	n/a	3	-1.367188e-01	-1.367188e-01
6.511941	1.682622	dec_social_low	1.682622	32.000000	n/a	3	-1.367188e-01	-1.367188e-01
6.511941	1.682622	dec_social_accept_low	1.682622	32.000000	n/a	3	-1.367188e-01	-1.367188e-01
13.344894	1.466715	dec_nonsocial_choice	1.466715	32.000000	n/a	2	-1.673177e-01	-1.673177e-01
13.344894	1.466715	dec_choice	1.466715	32.000000	n/a	2	-1.666667e-01	-1.666667e-01
13.344894	1.466715	dec_nonsocial_accept	1.466715	32.000000	n/a	2	-1.673177e-01	-1.673177e-01
13.344894	1.466715	dec_accept	1.466715	32.000000	n/a	2	-1.666667e-01	-1.666667e-01
13.344894	1.466715	dec_nonsocial_accept_low	1.466715	32.000000	n/a	2	-1.679688e-01	-1.679688e-01
22.611807	1.616145	dec_nonsocial_choice	1.616145	32.000000	n/a	16	2.701823e-01	2.701823e-01
22.611807	1.616145	dec_choice	1.616145	32.000000	n/a	16	2.708333e-01	2.708333e-01
22.611807	1.616145	dec_nonsocial_accept	1.616145	32.000000	n/a	16	2.701823e-01	2.701823e-01
22.611807	1.616145	dec_accept	1.616145	32.000000	n/a	16	2.708333e-01	2.708333e-01
22.611807	1.616145	dec_nonsocial_high	1.616145	32.000000	n/a	16	2.708333e-01	2.708333e-01
22.611807	1.616145	dec_nonsocial_accept_high	1.616145	32.000000	n/a	16	2.708333e-01	2.708333e-01
29.445534	1.784112	dec_social_choice	1.784112	16.000000	n/a	4	2.018229e-02	2.018229e-02
29.445534	1.784112	dec_choice	1.784112	16.000000	n/a	4	1.953125e-02	1.953125e-02
29.445534	1.784112	dec_social_accept	1.784112	16.000000	n/a	4	2.018229e-02	2.018229e-02
29.445534	1.784112	dec_accept	1.784112	16.000000	n/a	4	1.953125e-02	1.953125e-02
29.445534	1.784112	dec_social_accept_high	1.784112	16.000000	n/a	4	1.953125e-02	1.953125e-02
37.094715	1.400214	dec_nonsocial_choice	1.400214	16.000000	n/a	4	2.018229e-02	2.018229e-02
37.094715	1.400214	dec_choice	1.400214	16.000000	n/a	4	2.083333e-02	2.083333e-02
37.094715	1.400214	dec_nonsocial_accept	1.400214	16.000000	n/a	4	2.018229e-02	2.018229e-02
37.094715	1.400214	dec_accept	1.400214	16.000000	n/a	4	2.083333e-02	2.083333e-02
37.094715	1.400214	dec_nonsocial_high	1.400214	16.000000	n/a	4	2.083333e-02	2.083333e-02
37.094715	1.400214	dec_nonsocial_accept_high	1.400214	16.000000	n/a	4	2.083333e-02	2.083333e-02
44.744762	1.283910	dec_nonsocial_choice	1.283910	16.000000	n/a	1	-1.673177e-01	-1.673177e-01
44.744762	1.283910	dec_choice	1.283910	16.000000	n/a	1	-1.666667e-01	-1.666667e-01
44.744762	1.283910	dec_nonsocial_accept	1.283910	16.000000	n/a	1	-1.673177e-01	-1.673177e-01
44.744762	1.283910	dec_accept	1.283910	16.000000	n/a	1	-1.666667e-01	-1.666667e-01
44.744762	1.283910	dec_nonsocial_low	1.283910	16.000000	n/a	1	-1.666667e-01	-1.666667e-01
44.744762	1.283910	dec_nonsocial_accept_low	1.283910	16.000000	n/a	1	-1.666667e-01	-1.666667e-01
52.395820	1.499370	dec_nonsocial_choice	1.499370	32.000000	n/a	8	2.018229e-02	2.018229e-02
52.395820	1.499370	dec_choice	1.499370	32.000000	n/a	8	2.083333e-02	2.083333e-02
52.395820	1.499370	dec_nonsocial_accept	1.499370	32.000000	n/a	8	2.018229e-02	2.018229e-02
52.395820	1.499370	dec_accept	1.499370	32.000000	n/a	8	2.083333e-02	2.083333e-02
52.395820	1.499370	dec_nonsocial_accept_high	1.499370	32.000000	n/a	8	1.953125e-02	1.953125e-02
60.044567	1.483137	dec_social_choice	1.483137	32.000000	n/a	2	-1.673177e-01	-1.673177e-01
60.044567	1.483137	dec_choice	1.483137	32.000000	n/a	2	-1.679688e-01	-1.679688e-01
60.044567	1.483137	dec_social_accept	1.483137	32.000000	n/a	2	-1.673177e-01	-1.673177e-01
60.044567	1.483137	dec_accept	1.483137	32.000000	n/a	2	-1.679688e-01	-1.679688e-01
60.044567	1.483137	dec_social_accept_low	1.483137	32.000000	n/a	2	-1.679688e-01	-1.679688e-01
66.878820	1.399419	dec_nonsocial_choice	1.399419	16.000000	n/a	8	2.701823e-01	2.701823e-01
66.878820	1.399419	dec_choice	1.399419	16.000000	n/a	8	2.708333e-01	2.708333e-01
66.878820	1.399419	dec_nonsocial_accept	1.399419	16.000000	n/a	8	2.701823e-01	2.701823e-01
66.878820	1.399419	dec_accept	1.399419	16.000000	n/a	8	2.708333e-01	2.708333e-01
66.878820	1.399419	dec_nonsocial_accept_high	1.399419	16.000000	n/a	8	2.695312e-01	2.695312e-01
73.710846	1.583915	dec_social_choice	1.583915	32.000000	n/a	16	2.701823e-01	2.701823e-01
73.710846	1.583915	dec_choice	1.583915	32.000000	n/a	16	2.695312e-01	2.695312e-01
73.710846	1.583915	dec_social_accept	1.583915	32.000000	n/a	16	2.701823e-01	2.701823e-01
73.710846	1.583915	dec_accept	1.583915	32.000000	n/a	16	2.695312e-01	2.695312e-01
73.710846	1.583915	dec_social_accept_high	1.583915	32.000000	n/a	16	2.695312e-01	2.695312e-01
84.577770	1.433782	dec_nonsocial_choice	1.433782	16.000000	n/a	8	2.701823e-01	2.701823e-01
84.577770	1.433782	dec_choice	1.433782	16.000000	n/a	8	2.708333e-01	2.708333e-01
84.577770	1.433782	dec_nonsocial_accept	1.433782	16.000000	n/a	8	2.701823e-01	2.701823e-01
84.577770	1.433782	dec_accept	1.433782	16.000000	n/a	8	2.708333e-01	2.708333e-01
84.577770	1.433782	dec_nonsocial_accept_high	1.433782	16.000000	n/a	8	2.695312e-01	2.695312e-01
92.228355	1.449855	dec_social_choice	1.449855	16.000000	n/a	2	-1.048177e-01	-1.048177e-01
92.228355	1.449855	dec_choice	1.449855	16.000000	n/a	2	-1.054688e-01	-1.054688e-01
92.228355	1.449855	dec_social_accept	1.449855	16.000000	n/a	2	-1.048177e-01	-1.048177e-01
92.228355	1.449855	dec_accept	1.449855	16.000000	n/a	2	-1.054688e-01	-1.054688e-01
92.228355	1.449855	dec_social_accept_low	1.449855	16.000000	n/a	2	-1.054688e-01	-1.054688e-01
99.060960	1.083905	dec_social_choice	1.083905	16.000000	n/a	8	2.701823e-01	2.701823e-01
99.060960	1.083905	dec_choice	1.083905	16.000000	n/a	8	2.695312e-01	2.695312e-01
99.060960	1.083905	dec_social_accept	1.083905	16.000000	n/a	8	2.701823e-01	2.701823e-01
99.060960	1.083905	dec_accept	1.083905	16.000000	n/a	8	2.695312e-01	2.695312e-01
99.060960	1.083905	dec_social_accept_high	1.083905	16.000000	n/a	8	2.695312e-01	2.695312e-01
105.894830	1.300018	dec_social_choice	1.300018	32.000000	n/a	3	-1.360677e-01	-1.360677e-01
105.894830	1.300018	dec_choice	1.300018	32.000000	n/a	3	-1.367188e-01	-1.367188e-01
105.894830	1.300018	dec_social_accept	1.300018	32.000000	n/a	3	-1.360677e-01	-1.360677e-01
105.894830	1.300018	dec_accept	1.300018	32.000000	n/a	3	-1.367188e-01	-1.367188e-01
105.894830	1.300018	dec_social_accept_low	1.300018	32.000000	n/a	3	-1.367188e-01	-1.367188e-01
115.143800	1.550683	dec_social_choice	1.550683	16.000000	n/a	8	2.701823e-01	2.701823e-01
115.143800	1.550683	dec_choice	1.550683	16.000000	n/a	8	2.695312e-01	2.695312e-01
115.143800	1.550683	dec_social_accept	1.550683	16.000000	n/a	8	2.701823e-01	2.701823e-01
115.143800	1.550683	dec_accept	1.550683	16.000000	n/a	8	2.695312e-01	2.695312e-01
115.143800	1.550683	dec_social_high	1.550683	16.000000	n/a	8	2.695312e-01	2.695312e-01
115.143800	1.550683	dec_social_accept_high	1.550683	16.000000	n/a	8	2.695312e-01	2.695312e-01
124.394844	1.283270	dec_social_choice	1.283270	16.000000	n/a	8	2.701823e-01	2.701823e-01
124.394844	1.283270	dec_choice	1.283270	16.000000	n/a	8	2.695312e-01	2.695312e-01
124.394844	1.283270	dec_social_accept	1.283270	16.000000	n/a	8	2.701823e-01	2.701823e-01
124.394844	1.283270	dec_accept	1.283270	16.000000	n/a	8	2.695312e-01	2.695312e-01
124.394844	1.283270	dec_social_high	1.283270	16.000000	n/a	8	2.695312e-01	2.695312e-01
124.394844	1.283270	dec_social_accept_high	1.283270	16.000000	n/a	8	2.695312e-01	2.695312e-01
131.228590	1.399282	dec_nonsocial_choice	1.399282	32.000000	n/a	8	2.018229e-02	2.018229e-02
131.228590	1.399282	dec_choice	1.399282	32.000000	n/a	8	2.083333e-02	2.083333e-02
131.228590	1.399282	dec_nonsocial_accept	1.399282	32.000000	n/a	8	2.018229e-02	2.018229e-02
131.228590	1.399282	dec_accept	1.399282	32.000000	n/a	8	2.083333e-02	2.083333e-02
131.228590	1.399282	dec_nonsocial_accept_high	1.399282	32.000000	n/a	8	1.953125e-02	1.953125e-02
138.877670	1.316516	dec_nonsocial_choice	1.316516	16.000000	n/a	1	-1.673177e-01	-1.673177e-01
138.877670	1.316516	dec_choice	1.316516	16.000000	n/a	1	-1.666667e-01	-1.666667e-01
138.877670	1.316516	dec_nonsocial_accept	1.316516	16.000000	n/a	1	-1.673177e-01	-1.673177e-01
138.877670	1.316516	dec_accept	1.316516	16.000000	n/a	1	-1.666667e-01	-1.666667e-01
138.877670	1.316516	dec_nonsocial_low	1.316516	16.000000	n/a	1	-1.666667e-01	-1.666667e-01
138.877670	1.316516	dec_nonsocial_accept_low	1.316516	16.000000	n/a	1	-1.666667e-01	-1.666667e-01
145.711260	1.600049	dec_nonsocial_choice	1.600049	32.000000	n/a	16	2.701823e-01	2.701823e-01
145.711260	1.600049	dec_choice	1.600049	32.000000	n/a	16	2.708333e-01	2.708333e-01
145.711260	1.600049	dec_nonsocial_accept	1.600049	32.000000	n/a	16	2.701823e-01	2.701823e-01
145.711260	1.600049	dec_accept	1.600049	32.000000	n/a	16	2.708333e-01	2.708333e-01
145.711260	1.600049	dec_nonsocial_high	1.600049	32.000000	n/a	16	2.708333e-01	2.708333e-01
145.711260	1.600049	dec_nonsocial_accept_high	1.600049	32.000000	n/a	16	2.708333e-01	2.708333e-01
154.961270	1.700322	dec_nonsocial_choice	1.700322	32.000000	n/a	3	-1.360677e-01	-1.360677e-01
154.961270	1.700322	dec_choice	1.700322	32.000000	n/a	3	-1.354167e-01	-1.354167e-01
154.961270	1.700322	dec_nonsocial_accept	1.700322	32.000000	n/a	3	-1.360677e-01	-1.360677e-01
154.961270	1.700322	dec_accept	1.700322	32.000000	n/a	3	-1.354167e-01	-1.354167e-01
154.961270	1.700322	dec_nonsocial_low	1.700322	32.000000	n/a	3	-1.354167e-01	-1.354167e-01
154.961270	1.700322	dec_nonsocial_accept_low	1.700322	32.000000	n/a	3	-1.354167e-01	-1.354167e-01
162.611600	1.332967	dec_social_choice	1.332967	16.000000	n/a	1	-1.673177e-01	-1.673177e-01
162.611600	1.332967	dec_choice	1.332967	16.000000	n/a	1	-1.679688e-01	-1.679688e-01
162.611600	1.332967	dec_social_accept	1.332967	16.000000	n/a	1	-1.673177e-01	-1.673177e-01
162.611600	1.332967	dec_accept	1.332967	16.000000	n/a	1	-1.679688e-01	-1.679688e-01
162.611600	1.332967	dec_social_low	1.332967	16.000000	n/a	1	-1.679688e-01	-1.679688e-01
162.611600	1.332967	dec_social_accept_low	1.332967	16.000000	n/a	1	-1.679688e-01	-1.679688e-01
173.477570	1.583413	dec_nonsocial_choice	1.583413	32.000000	n/a	2	-1.673177e-01	-1.673177e-01
173.477570	1.583413	dec_choice	1.583413	32.000000	n/a	2	-1.666667e-01	-1.666667e-01
173.477570	1.583413	dec_nonsocial_accept	1.583413	32.000000	n/a	2	-1.673177e-01	-1.673177e-01
173.477570	1.583413	dec_accept	1.583413	32.000000	n/a	2	-1.666667e-01	-1.666667e-01
173.477570	1.583413	dec_nonsocial_accept_low	1.583413	32.000000	n/a	2	-1.679688e-01	-1.679688e-01
180.311300	1.415744	dec_social_choice	1.415744	16.000000	n/a	8	2.701823e-01	2.701823e-01
180.311300	1.415744	dec_choice	1.415744	16.000000	n/a	8	2.695312e-01	2.695312e-01
180.311300	1.415744	dec_social_accept	1.415744	16.000000	n/a	8	2.701823e-01	2.701823e-01
180.311300	1.415744	dec_accept	1.415744	16.000000	n/a	8	2.695312e-01	2.695312e-01
180.311300	1.415744	dec_social_high	1.415744	16.000000	n/a	8	2.695312e-01	2.695312e-01
180.311300	1.415744	dec_social_accept_high	1.415744	16.000000	n/a	8	2.695312e-01	2.695312e-01
187.143740	1.133799	dec_social_choice	1.133799	32.000000	n/a	8	2.018229e-02	2.018229e-02
187.143740	1.133799	dec_choice	1.133799	32.000000	n/a	8	1.953125e-02	1.953125e-02
187.143740	1.133799	dec_social_accept	1.133799	32.000000	n/a	8	2.018229e-02	2.018229e-02
187.143740	1.133799	dec_accept	1.133799	32.000000	n/a	8	1.953125e-02	1.953125e-02
187.143740	1.133799	dec_social_accept_high	1.133799	32.000000	n/a	8	1.953125e-02	1.953125e-02
193.977600	1.232841	dec_social_choice	1.232841	32.000000	n/a	2	-1.673177e-01	-1.673177e-01
193.977600	1.232841	dec_choice	1.232841	32.000000	n/a	2	-1.679688e-01	-1.679688e-01
193.977600	1.232841	dec_social_accept	1.232841	32.000000	n/a	2	-1.673177e-01	-1.673177e-01
193.977600	1.232841	dec_accept	1.232841	32.000000	n/a	2	-1.679688e-01	-1.679688e-01
193.977600	1.232841	dec_social_accept_low	1.232841	32.000000	n/a	2	-1.679688e-01	-1.679688e-01
200.810790	0.983552	dec_social_choice	0.983552	16.000000	n/a	2	-1.048177e-01	-1.048177e-01
200.810790	0.983552	dec_choice	0.983552	16.000000	n/a	2	-1.054688e-01	-1.054688e-01
200.810790	0.983552	dec_social_accept	0.983552	16.000000	n/a	2	-1.048177e-01	-1.048177e-01
200.810790	0.983552	dec_accept	0.983552	16.000000	n/a	2	-1.054688e-01	-1.054688e-01
200.810790	0.983552	dec_social_low	0.983552	16.000000	n/a	2	-1.054688e-01	-1.054688e-01
200.810790	0.983552	dec_social_accept_low	0.983552	16.000000	n/a	2	-1.054688e-01	-1.054688e-01
210.061260	1.182612	dec_nonsocial_choice	1.182612	16.000000	n/a	4	2.018229e-02	2.018229e-02
210.061260	1.182612	dec_choice	1.182612	16.000000	n/a	4	2.083333e-02	2.083333e-02
210.061260	1.182612	dec_nonsocial_accept	1.182612	16.000000	n/a	4	2.018229e-02	2.018229e-02
210.061260	1.182612	dec_accept	1.182612	16.000000	n/a	4	2.083333e-02	2.083333e-02
210.061260	1.182612	dec_nonsocial_accept_high	1.182612	16.000000	n/a	4	1.953125e-02	1.953125e-02
217.710510	1.400613	dec_social_choice	1.400613	16.000000	n/a	2	-1.048177e-01	-1.048177e-01
217.710510	1.400613	dec_choice	1.400613	16.000000	n/a	2	-1.054688e-01	-1.054688e-01
217.710510	1.400613	dec_social_accept	1.400613	16.000000	n/a	2	-1.048177e-01	-1.048177e-01
217.710510	1.400613	dec_accept	1.400613	16.000000	n/a	2	-1.054688e-01	-1.054688e-01
217.710510	1.400613	dec_social_low	1.400613	16.000000	n/a	2	-1.054688e-01	-1.054688e-01
217.710510	1.400613	dec_social_accept_low	1.400613	16.000000	n/a	2	-1.054688e-01	-1.054688e-01
228.576740	1.250951	dec_social_choice	1.250951	16.000000	n/a	1	-1.673177e-01	-1.673177e-01
228.576740	1.250951	dec_choice	1.250951	16.000000	n/a	1	-1.679688e-01	-1.679688e-01
228.576740	1.250951	dec_social_accept	1.250951	16.000000	n/a	1	-1.673177e-01	-1.673177e-01
228.576740	1.250951	dec_accept	1.250951	16.000000	n/a	1	-1.679688e-01	-1.679688e-01
228.576740	1.250951	dec_social_low	1.250951	16.000000	n/a	1	-1.679688e-01	-1.679688e-01
228.576740	1.250951	dec_social_accept_low	1.250951	16.000000	n/a	1	-1.679688e-01	-1.679688e-01
236.227570	1.350246	dec_nonsocial_choice	1.350246	16.000000	n/a	1	-1.673177e-01	-1.673177e-01
236.227570	1.350246	dec_choice	1.350246	16.000000	n/a	1	-1.666667e-01	-1.666667e-01
236.227570	1.350246	dec_nonsocial_accept	1.350246	16.000000	n/a	1	-1.673177e-01	-1.673177e-01
236.227570	1.350246	dec_accept	1.350246	16.000000	n/a	1	-1.666667e-01	-1.666667e-01
236.227570	1.350246	dec_nonsocial_accept_low	1.350246	16.000000	n/a	1	-1.679688e-01	-1.679688e-01
243.060970	1.283331	dec_nonsocial_choice	1.283331	32.000000	n/a	2	-1.673177e-01	-1.673177e-01
243.060970	1.283331	dec_choice	1.283331	32.000000	n/a	2	-1.666667e-01	-1.666667e-01
243.060970	1.283331	dec_nonsocial_accept	1.283331	32.000000	n/a	2	-1.673177e-01	-1.673177e-01
243.060970	1.283331	dec_accept	1.283331	32.000000	n/a	2	-1.666667e-01	-1.666667e-01
243.060970	1.283331	dec_nonsocial_accept_low	1.283331	32.000000	n/a	2	-1.679688e-01	-1.679688e-01
249.894470	1.333393	dec_social_choice	1.333393	32.000000	n/a	8	2.018229e-02	2.018229e-02
249.894470	1.333393	dec_choice	1.333393	32.000000	n/a	8	1.953125e-02	1.953125e-02
249.894470	1.333393	dec_social_accept	1.333393	32.000000	n/a	8	2.018229e-02	2.018229e-02
249.894470	1.333393	dec_accept	1.333393	32.000000	n/a	8	1.953125e-02	1.953125e-02
249.894470	1.333393	dec_social_high	1.333393	32.000000	n/a	8	1.953125e-02	1.953125e-02
249.894470	1.333393	dec_social_accept_high	1.333393	32.000000	n/a	8	1.953125e-02	1.953125e-02
262.377660	1.149854	dec_nonsocial_choice	1.149854	16.000000	n/a	8	2.701823e-01	2.701823e-01
262.377660	1.149854	dec_choice	1.149854	16.000000	n/a	8	2.708333e-01	2.708333e-01
262.377660	1.149854	dec_nonsocial_accept	1.149854	16.000000	n/a	8	2.701823e-01	2.701823e-01
262.377660	1.149854	dec_accept	1.149854	16.000000	n/a	8	2.708333e-01	2.708333e-01
262.377660	1.149854	dec_nonsocial_accept_high	1.149854	16.000000	n/a	8	2.695312e-01	2.695312e-01
270.027370	1.133504	dec_nonsocial_choice	1.133504	32.000000	n/a	3	-1.360677e-01	-1.360677e-01
270.027370	1.133504	dec_choice	1.133504	32.000000	n/a	3	-1.354167e-01	-1.354167e-01
270.027370	1.133504	dec_nonsocial_accept	1.133504	32.000000	n/a	3	-1.360677e-01	-1.360677e-01
270.027370	1.133504	dec_accept	1.133504	32.000000	n/a	3	-1.354167e-01	-1.354167e-01
270.027370	1.133504	dec_nonsocial_accept_low	1.133504	32.000000	n/a	3	-1.367188e-01	-1.367188e-01
276.861180	1.215844	dec_social_choice	1.215844	16.000000	n/a	4	2.018229e-02	2.018229e-02
276.861180	1.215844	dec_choice	1.215844	16.000000	n/a	4	1.953125e-02	1.953125e-02
276.861180	1.215844	dec_social_accept	1.215844	16.000000	n/a	4	2.018229e-02	2.018229e-02
276.861180	1.215844	dec_accept	1.215844	16.000000	n/a	4	1.953125e-02	1.953125e-02
276.861180	1.215844	dec_social_high	1.215844	16.000000	n/a	4	1.953125e-02	1.953125e-02
276.861180	1.215844	dec_social_accept_high	1.215844	16.000000	n/a	4	1.953125e-02	1.953125e-02
283.695070	1.299464	dec_social_choice	1.299464	32.000000	n/a	3	-1.360677e-01	-1.360677e-01
283.695070	1.299464	dec_choice	1.299464	32.000000	n/a	3	-1.367188e-01	-1.367188e-01
283.695070	1.299464	dec_social_accept	1.299464	32.000000	n/a	3	-1.360677e-01	-1.360677e-01
283.695070	1.299464	dec_accept	1.299464	32.000000	n/a	3	-1.367188e-01	-1.367188e-01
283.695070	1.299464	dec_social_low	1.299464	32.000000	n/a	3	-1.367188e-01	-1.367188e-01
283.695070	1.299464	dec_social_accept_low	1.299464	32.000000	n/a	3	-1.367188e-01	-1.367188e-01
290.527220	1.500652	dec_nonsocial_choice	1.500652	32.000000	n/a	16	2.701823e-01	2.701823e-01
290.527220	1.500652	dec_choice	1.500652	32.000000	n/a	16	2.708333e-01	2.708333e-01
290.527220	1.500652	dec_nonsocial_accept	1.500652	32.000000	n/a	16	2.701823e-01	2.701823e-01
290.527220	1.500652	dec_accept	1.500652	32.000000	n/a	16	2.708333e-01	2.708333e-01
290.527220	1.500652	dec_nonsocial_accept_high	1.500652	32.000000	n/a	16	2.695312e-01	2.695312e-01
298.177550	1.199950	dec_nonsocial_choice	1.199950	16.000000	n/a	2	-1.048177e-01	-1.048177e-01
298.177550	1.199950	dec_choice	1.199950	16.000000	n/a	2	-1.041667e-01	-1.041667e-01
298.177550	1.199950	dec_nonsocial_accept	1.199950	16.000000	n/a	2	-1.048177e-01	-1.048177e-01
298.177550	1.199950	dec_accept	1.199950	16.000000	n/a	2	-1.041667e-01	-1.041667e-01
298.177550	1.199950	dec_nonsocial_low	1.199950	16.000000	n/a	2	-1.041667e-01	-1.041667e-01
298.177550	1.199950	dec_nonsocial_accept_low	1.199950	16.000000	n/a	2	-1.041667e-01	-1.041667e-01
305.827850	1.049660	dec_social_choice	1.049660	32.000000	n/a	8	2.018229e-02	2.018229e-02
305.827850	1.049660	dec_choice	1.049660	32.000000	n/a	8	1.953125e-02	1.953125e-02
305.827850	1.049660	dec_social_accept	1.049660	32.000000	n/a	8	2.018229e-02	2.018229e-02
305.827850	1.049660	dec_accept	1.049660	32.000000	n/a	8	1.953125e-02	1.953125e-02
305.827850	1.049660	dec_social_accept_high	1.049660	32.000000	n/a	8	1.953125e-02	1.953125e-02
312.661350	1.399367	dec_nonsocial_choice	1.399367	32.000000	n/a	3	-1.360677e-01	-1.360677e-01
312.661350	1.399367	dec_choice	1.399367	32.000000	n/a	3	-1.354167e-01	-1.354167e-01
312.661350	1.399367	dec_nonsocial_accept	1.399367	32.000000	n/a	3	-1.360677e-01	-1.360677e-01
312.661350	1.399367	dec_accept	1.399367	32.000000	n/a	3	-1.354167e-01	-1.354167e-01
312.661350	1.399367	dec_nonsocial_low	1.399367	32.000000	n/a	3	-1.354167e-01	-1.354167e-01
312.661350	1.399367	dec_nonsocial_accept_low	1.399367	32.000000	n/a	3	-1.354167e-01	-1.354167e-01
319.493600	1.167103	dec_social_choice	1.167103	16.000000	n/a	8	2.701823e-01	2.701823e-01
319.493600	1.167103	dec_choice	1.167103	16.000000	n/a	8	2.695312e-01	2.695312e-01
319.493600	1.167103	dec_social_accept	1.167103	16.000000	n/a	8	2.701823e-01	2.701823e-01
319.493600	1.167103	dec_accept	1.167103	16.000000	n/a	8	2.695312e-01	2.695312e-01
319.493600	1.167103	dec_social_accept_high	1.167103	16.000000	n/a	8	2.695312e-01	2.695312e-01
326.327300	1.300340	dec_nonsocial_choice	1.300340	32.000000	n/a	3	-1.360677e-01	-1.360677e-01
326.327300	1.300340	dec_choice	1.300340	32.000000	n/a	3	-1.354167e-01	-1.354167e-01
326.327300	1.300340	dec_nonsocial_accept	1.300340	32.000000	n/a	3	-1.360677e-01	-1.360677e-01
326.327300	1.300340	dec_accept	1.300340	32.000000	n/a	3	-1.354167e-01	-1.354167e-01
326.327300	1.300340	dec_nonsocial_low	1.300340	32.000000	n/a	3	-1.354167e-01	-1.354167e-01
326.327300	1.300340	dec_nonsocial_accept_low	1.300340	32.000000	n/a	3	-1.354167e-01	-1.354167e-01
333.160800	1.233273	dec_nonsocial_choice	1.233273	16.000000	n/a	4	2.018229e-02	2.018229e-02
333.160800	1.233273	dec_choice	1.233273	16.000000	n/a	4	2.083333e-02	2.083333e-02
333.160800	1.233273	dec_nonsocial_accept	1.233273	16.000000	n/a	4	2.018229e-02	2.018229e-02
333.160800	1.233273	dec_accept	1.233273	16.000000	n/a	4	2.083333e-02	2.083333e-02
333.160800	1.233273	dec_nonsocial_accept_high	1.233273	16.000000	n/a	4	1.953125e-02	1.953125e-02
339.994400	1.482937	dec_social_choice	1.482937	32.000000	n/a	2	-1.673177e-01	-1.673177e-01
339.994400	1.482937	dec_choice	1.482937	32.000000	n/a	2	-1.679688e-01	-1.679688e-01
339.994400	1.482937	dec_social_accept	1.482937	32.000000	n/a	2	-1.673177e-01	-1.673177e-01
339.994400	1.482937	dec_accept	1.482937	32.000000	n/a	2	-1.679688e-01	-1.679688e-01
339.994400	1.482937	dec_social_low	1.482937	32.000000	n/a	2	-1.679688e-01	-1.679688e-01
339.994400	1.482937	dec_social_accept_low	1.482937	32.000000	n/a	2	-1.679688e-01	-1.679688e-01
349.260680	1.000198	dec_social_choice	1.000198	32.000000	n/a	2	-1.673177e-01	-1.673177e-01
349.260680	1.000198	dec_choice	1.000198	32.000000	n/a	2	-1.679688e-01	-1.679688e-01
349.260680	1.000198	dec_social_accept	1.000198	32.000000	n/a	2	-1.673177e-01	-1.673177e-01
349.260680	1.000198	dec_accept	1.000198	32.000000	n/a	2	-1.679688e-01	-1.679688e-01
349.260680	1.000198	dec_social_accept_low	1.000198	32.000000	n/a	2	-1.679688e-01	-1.679688e-01
356.910430	1.183763	dec_nonsocial_choice	1.183763	16.000000	n/a	2	-1.048177e-01	-1.048177e-01
356.910430	1.183763	dec_choice	1.183763	16.000000	n/a	2	-1.041667e-01	-1.041667e-01
356.910430	1.183763	dec_nonsocial_accept	1.183763	16.000000	n/a	2	-1.048177e-01	-1.048177e-01
356.910430	1.183763	dec_accept	1.183763	16.000000	n/a	2	-1.041667e-01	-1.041667e-01
356.910430	1.183763	dec_nonsocial_low	1.183763	16.000000	n/a	2	-1.041667e-01	-1.041667e-01
356.910430	1.183763	dec_nonsocial_accept_low	1.183763	16.000000	n/a	2	-1.041667e-01	-1.041667e-01
366.177280	1.216441	dec_nonsocial_choice	1.216441	16.000000	n/a	4	2.018229e-02	2.018229e-02
366.177280	1.216441	dec_choice	1.216441	16.000000	n/a	4	2.083333e-02	2.083333e-02
366.177280	1.216441	dec_nonsocial_accept	1.216441	16.000000	n/a	4	2.018229e-02	2.018229e-02
366.177280	1.216441	dec_accept	1.216441	16.000000	n/a	4	2.083333e-02	2.083333e-02
366.177280	1.216441	dec_nonsocial_accept_high	1.216441	16.000000	n/a	4	1.953125e-02	1.953125e-02
373.011300	1.133259	dec_social_choice	1.133259	32.000000	n/a	8	2.018229e-02	2.018229e-02
373.011300	1.133259	dec_choice	1.133259	32.000000	n/a	8	1.953125e-02	1.953125e-02
373.011300	1.133259	dec_social_accept	1.133259	32.000000	n/a	8	2.018229e-02	2.018229e-02
373.011300	1.133259	dec_accept	1.133259	32.000000	n/a	8	1.953125e-02	1.953125e-02
373.011300	1.133259	dec_social_high	1.133259	32.000000	n/a	8	1.953125e-02	1.953125e-02
373.011300	1.133259	dec_social_accept_high	1.133259	32.000000	n/a	8	1.953125e-02	1.953125e-02
