onset	duration	trial_type	response_time	Endowment	Endowment_pmod	Decision	Decision_pmod	Offer_pmod
4.618778	2	cue_social	n/a	32	9	n/a	n/a	n/a
4.618778	2	cue_social_high	n/a	32	11	n/a	n/a	n/a
12.277763	2	cue_social	n/a	16	-7	n/a	n/a	n/a
12.277763	2	cue_social_low	n/a	16	-5	n/a	n/a	n/a
19.128220	2	cue_social	n/a	16	-7	n/a	n/a	n/a
19.128220	2	cue_social_low	n/a	16	-5	n/a	n/a	n/a
29.969732	2	cue_social	n/a	16	-7	n/a	n/a	n/a
29.969732	2	cue_social_low	n/a	16	-5	n/a	n/a	n/a
39.134975	2	cue_nonsocial	n/a	16	-5	n/a	n/a	n/a
39.134975	2	cue_nonsocial_low	n/a	16	-7	n/a	n/a	n/a
45.972755	2	cue_social	n/a	32	9	n/a	n/a	n/a
45.972755	2	cue_social_high	n/a	32	11	n/a	n/a	n/a
55.217735	2	cue_nonsocial	n/a	16	-5	n/a	n/a	n/a
55.217735	2	cue_nonsocial_low	n/a	16	-7	n/a	n/a	n/a
62.161007	2	cue_social	n/a	32	9	n/a	n/a	n/a
62.161007	2	cue_social_high	n/a	32	11	n/a	n/a	n/a
68.991130	2	cue_social	n/a	16	-7	n/a	n/a	n/a
68.991130	2	cue_social_low	n/a	16	-5	n/a	n/a	n/a
75.718060	2	cue_nonsocial	n/a	16	-5	n/a	n/a	n/a
75.718060	2	cue_nonsocial_low	n/a	16	-7	n/a	n/a	n/a
82.551094	2	cue_nonsocial	n/a	16	-5	n/a	n/a	n/a
82.551094	2	cue_nonsocial_low	n/a	16	-7	n/a	n/a	n/a
90.201020	2	cue_nonsocial	n/a	16	-5	n/a	n/a	n/a
90.201020	2	cue_nonsocial_low	n/a	16	-7	n/a	n/a	n/a
97.850960	2	cue_nonsocial	n/a	16	-5	n/a	n/a	n/a
97.850960	2	cue_nonsocial_low	n/a	16	-7	n/a	n/a	n/a
105.604360	2	cue_social	n/a	16	-7	n/a	n/a	n/a
105.604360	2	cue_social_low	n/a	16	-5	n/a	n/a	n/a
113.151530	2	cue_nonsocial	n/a	32	11	n/a	n/a	n/a
113.151530	2	cue_nonsocial_high	n/a	32	9	n/a	n/a	n/a
120.800960	2	cue_nonsocial	n/a	16	-5	n/a	n/a	n/a
120.800960	2	cue_nonsocial_low	n/a	16	-7	n/a	n/a	n/a
130.059940	2	cue_social	n/a	32	9	n/a	n/a	n/a
130.059940	2	cue_social_high	n/a	32	11	n/a	n/a	n/a
136.884200	2	cue_nonsocial	n/a	32	11	n/a	n/a	n/a
136.884200	2	cue_nonsocial_high	n/a	32	9	n/a	n/a	n/a
146.151490	2	cue_nonsocial	n/a	32	11	n/a	n/a	n/a
146.151490	2	cue_nonsocial_high	n/a	32	9	n/a	n/a	n/a
153.886920	2	cue_social	n/a	32	9	n/a	n/a	n/a
153.886920	2	cue_social_high	n/a	32	11	n/a	n/a	n/a
160.634310	2	cue_nonsocial	n/a	16	-5	n/a	n/a	n/a
160.634310	2	cue_nonsocial_low	n/a	16	-7	n/a	n/a	n/a
167.571730	2	cue_social	n/a	32	9	n/a	n/a	n/a
167.571730	2	cue_social_high	n/a	32	11	n/a	n/a	n/a
174.389630	2	cue_social	n/a	32	9	n/a	n/a	n/a
174.389630	2	cue_social_high	n/a	32	11	n/a	n/a	n/a
181.236970	2	cue_social	n/a	16	-7	n/a	n/a	n/a
181.236970	2	cue_social_low	n/a	16	-5	n/a	n/a	n/a
188.784620	2	cue_nonsocial	n/a	16	-5	n/a	n/a	n/a
188.784620	2	cue_nonsocial_low	n/a	16	-7	n/a	n/a	n/a
195.675900	2	cue_social	n/a	16	-7	n/a	n/a	n/a
195.675900	2	cue_social_low	n/a	16	-5	n/a	n/a	n/a
202.535140	2	cue_social	n/a	16	-7	n/a	n/a	n/a
202.535140	2	cue_social_low	n/a	16	-5	n/a	n/a	n/a
210.100880	2	cue_nonsocial	n/a	16	-5	n/a	n/a	n/a
210.100880	2	cue_nonsocial_low	n/a	16	-7	n/a	n/a	n/a
217.750760	2	cue_nonsocial	n/a	16	-5	n/a	n/a	n/a
217.750760	2	cue_nonsocial_low	n/a	16	-7	n/a	n/a	n/a
227.083150	2	cue_social	n/a	16	-7	n/a	n/a	n/a
227.083150	2	cue_social_low	n/a	16	-5	n/a	n/a	n/a
239.603800	2	cue_social	n/a	16	-7	n/a	n/a	n/a
239.603800	2	cue_social_low	n/a	16	-5	n/a	n/a	n/a
246.334580	2	cue_nonsocial	n/a	16	-5	n/a	n/a	n/a
246.334580	2	cue_nonsocial_low	n/a	16	-7	n/a	n/a	n/a
253.168400	2	cue_nonsocial	n/a	16	-5	n/a	n/a	n/a
253.168400	2	cue_nonsocial_low	n/a	16	-7	n/a	n/a	n/a
262.505280	2	cue_social	n/a	16	-7	n/a	n/a	n/a
262.505280	2	cue_social_low	n/a	16	-5	n/a	n/a	n/a
273.284900	2	cue_nonsocial	n/a	32	11	n/a	n/a	n/a
273.284900	2	cue_nonsocial_high	n/a	32	9	n/a	n/a	n/a
280.996860	2	cue_social	n/a	16	-7	n/a	n/a	n/a
280.996860	2	cue_social_low	n/a	16	-5	n/a	n/a	n/a
288.567440	2	cue_nonsocial	n/a	32	11	n/a	n/a	n/a
288.567440	2	cue_nonsocial_high	n/a	32	9	n/a	n/a	n/a
295.401000	2	cue_nonsocial	n/a	32	11	n/a	n/a	n/a
295.401000	2	cue_nonsocial_high	n/a	32	9	n/a	n/a	n/a
302.234920	2	cue_nonsocial	n/a	16	-5	n/a	n/a	n/a
302.234920	2	cue_nonsocial_low	n/a	16	-7	n/a	n/a	n/a
309.067440	2	cue_nonsocial	n/a	32	11	n/a	n/a	n/a
309.067440	2	cue_nonsocial_high	n/a	32	9	n/a	n/a	n/a
316.718380	2	cue_nonsocial	n/a	16	-5	n/a	n/a	n/a
316.718380	2	cue_nonsocial_low	n/a	16	-7	n/a	n/a	n/a
323.635800	2	cue_social	n/a	32	9	n/a	n/a	n/a
323.635800	2	cue_social_high	n/a	32	11	n/a	n/a	n/a
330.384220	2	cue_nonsocial	n/a	16	-5	n/a	n/a	n/a
330.384220	2	cue_nonsocial_low	n/a	16	-7	n/a	n/a	n/a
337.304200	2	cue_social	n/a	16	-7	n/a	n/a	n/a
337.304200	2	cue_social_low	n/a	16	-5	n/a	n/a	n/a
344.052060	2	cue_social	n/a	16	-7	n/a	n/a	n/a
344.052060	2	cue_social_low	n/a	16	-5	n/a	n/a	n/a
354.917900	2	cue_nonsocial	n/a	32	11	n/a	n/a	n/a
354.917900	2	cue_nonsocial_high	n/a	32	9	n/a	n/a	n/a
361.820340	2	cue_social	n/a	32	9	n/a	n/a	n/a
361.820340	2	cue_social_high	n/a	32	11	n/a	n/a	n/a
368.680630	2	cue_social	n/a	32	9	n/a	n/a	n/a
368.680630	2	cue_social_high	n/a	32	11	n/a	n/a	n/a
6.523949	1.583245	dec_social_choice	1.583245	32.000000	n/a	2	-1.686198e-01	-1.686198e-01
6.523949	1.583245	dec_choice	1.583245	32.000000	n/a	2	-1.692708e-01	-1.692708e-01
6.523949	1.583245	dec_social_accept	1.583245	32.000000	n/a	2	-2.479839e-01	-2.479839e-01
6.523949	1.583245	dec_accept	1.583245	32.000000	n/a	2	-2.297794e-01	-2.297794e-01
6.523949	1.583245	dec_social_accept_low	1.583245	32.000000	n/a	2	-1.692708e-01	-1.692708e-01
14.173669	1.532452	dec_social_choice	1.532452	16.000000	n/a	8	2.688802e-01	2.688802e-01
14.173669	1.532452	dec_choice	1.532452	16.000000	n/a	8	2.682292e-01	2.682292e-01
14.173669	1.532452	dec_social_accept	1.532452	16.000000	n/a	8	1.895161e-01	1.895161e-01
14.173669	1.532452	dec_accept	1.532452	16.000000	n/a	8	2.077206e-01	2.077206e-01
14.173669	1.532452	dec_social_high	1.532452	16.000000	n/a	8	2.682292e-01	2.682292e-01
14.173669	1.532452	dec_social_accept_high	1.532452	16.000000	n/a	8	2.682292e-01	2.682292e-01
21.006289	1.550841	dec_social_choice	1.550841	16.000000	n/a	2	-1.061198e-01	-1.061198e-01
21.006289	1.550841	dec_choice	1.550841	16.000000	n/a	2	-1.067708e-01	-1.067708e-01
21.006289	1.550841	dec_social_accept	1.550841	16.000000	n/a	2	-1.854839e-01	-1.854839e-01
21.006289	1.550841	dec_accept	1.550841	16.000000	n/a	2	-1.672794e-01	-1.672794e-01
21.006289	1.550841	dec_social_accept_low	1.550841	16.000000	n/a	2	-1.067708e-01	-1.067708e-01
31.873928	2.465606	dec_social_choice	2.465606	16.000000	n/a	2	-1.061198e-01	-1.061198e-01
31.873928	2.465606	dec_choice	2.465606	16.000000	n/a	2	-1.067708e-01	-1.067708e-01
31.873928	2.465606	dec_social_accept	2.465606	16.000000	n/a	2	-1.854839e-01	-1.854839e-01
31.873928	2.465606	dec_accept	2.465606	16.000000	n/a	2	-1.672794e-01	-1.672794e-01
31.873928	2.465606	dec_social_accept_low	2.465606	16.000000	n/a	2	-1.067708e-01	-1.067708e-01
41.140152	1.315920	dec_nonsocial_choice	1.315920	16.000000	n/a	1	-1.686198e-01	-1.686198e-01
41.140152	1.315920	dec_choice	1.315920	16.000000	n/a	1	-1.679688e-01	-1.679688e-01
41.140152	1.315920	dec_nonsocial_accept	1.315920	16.000000	n/a	1	-2.479839e-01	-2.479839e-01
41.140152	1.315920	dec_accept	1.315920	16.000000	n/a	1	-2.700893e-01	-2.700893e-01
41.140152	1.315920	dec_nonsocial_accept_low	1.315920	16.000000	n/a	1	-2.297794e-01	-2.297794e-01
47.973038	1.417048	dec_social_choice	1.417048	32.000000	n/a	2	-1.686198e-01	-1.686198e-01
47.973038	1.417048	dec_choice	1.417048	32.000000	n/a	2	-1.692708e-01	-1.692708e-01
47.973038	1.417048	dec_social_accept	1.417048	32.000000	n/a	2	-2.479839e-01	-2.479839e-01
47.973038	1.417048	dec_accept	1.417048	32.000000	n/a	2	-2.297794e-01	-2.297794e-01
47.973038	1.417048	dec_social_accept_low	1.417048	32.000000	n/a	2	-1.692708e-01	-1.692708e-01
57.223465	2.583552	dec_nonsocial_choice	2.583552	16.000000	n/a	0	0	-2.311198e-01
57.223465	2.583552	dec_choice	2.583552	16.000000	n/a	0	0	-2.304688e-01
57.223465	2.583552	dec_nonsocial_reject	2.583552	16.000000	n/a	0	0	3.860294e-02
57.223465	2.583552	dec_reject	2.583552	16.000000	n/a	0	0	3.750000e-02
57.223465	2.583552	dec_nonsocial_reject_low	2.583552	16.000000	n/a	2	4.017857e-02	-8.482143e-02
64.058200	1.498628	dec_social_choice	1.498628	32.000000	n/a	8	1.888021e-02	1.888021e-02
64.058200	1.498628	dec_choice	1.498628	32.000000	n/a	8	1.822917e-02	1.822917e-02
64.058200	1.498628	dec_social_accept	1.498628	32.000000	n/a	8	-6.048387e-02	-6.048387e-02
64.058200	1.498628	dec_accept	1.498628	32.000000	n/a	8	-4.227941e-02	-4.227941e-02
64.058200	1.498628	dec_social_high	1.498628	32.000000	n/a	8	1.822917e-02	1.822917e-02
64.058200	1.498628	dec_social_accept_high	1.498628	32.000000	n/a	8	1.822917e-02	1.822917e-02
70.890045	1.233382	dec_social_choice	1.233382	16.000000	n/a	4	1.888021e-02	1.888021e-02
70.890045	1.233382	dec_choice	1.233382	16.000000	n/a	4	1.822917e-02	1.822917e-02
70.890045	1.233382	dec_social_accept	1.233382	16.000000	n/a	4	-6.048387e-02	-6.048387e-02
70.890045	1.233382	dec_accept	1.233382	16.000000	n/a	4	-4.227941e-02	-4.227941e-02
70.890045	1.233382	dec_social_accept_high	1.233382	16.000000	n/a	4	1.822917e-02	1.822917e-02
77.724075	1.315489	dec_nonsocial_choice	1.315489	16.000000	n/a	4	1.888021e-02	1.888021e-02
77.724075	1.315489	dec_choice	1.315489	16.000000	n/a	4	1.953125e-02	1.953125e-02
77.724075	1.315489	dec_nonsocial_accept	1.315489	16.000000	n/a	4	-6.048387e-02	-6.048387e-02
77.724075	1.315489	dec_accept	1.315489	16.000000	n/a	4	-8.258929e-02	-8.258929e-02
77.724075	1.315489	dec_nonsocial_accept_high	1.315489	16.000000	n/a	4	-4.227941e-02	-4.227941e-02
84.557594	1.548998	dec_nonsocial_choice	1.548998	16.000000	n/a	4	1.888021e-02	1.888021e-02
84.557594	1.548998	dec_choice	1.548998	16.000000	n/a	4	1.953125e-02	1.953125e-02
84.557594	1.548998	dec_nonsocial_accept	1.548998	16.000000	n/a	4	-6.048387e-02	-6.048387e-02
84.557594	1.548998	dec_accept	1.548998	16.000000	n/a	4	-8.258929e-02	-8.258929e-02
84.557594	1.548998	dec_nonsocial_high	1.548998	16.000000	n/a	4	1.953125e-02	1.953125e-02
84.557594	1.548998	dec_nonsocial_accept_high	1.548998	16.000000	n/a	4	-8.258929e-02	-8.258929e-02
92.206720	1.200156	dec_nonsocial_choice	1.200156	16.000000	n/a	0	0	-2.311198e-01
92.206720	1.200156	dec_choice	1.200156	16.000000	n/a	0	0	-2.304688e-01
92.206720	1.200156	dec_nonsocial_reject	1.200156	16.000000	n/a	0	0	-2.389706e-02
92.206720	1.200156	dec_reject	1.200156	16.000000	n/a	0	0	-2.500000e-02
92.206720	1.200156	dec_nonsocial_low	1.200156	16.000000	n/a	0	-2.304688e-01	-2.304688e-01
92.206720	1.200156	dec_nonsocial_reject_low	1.200156	16.000000	n/a	1	-2.500000e-02	-8.750000e-02
99.856995	1.333147	dec_nonsocial_choice	1.333147	16.000000	n/a	8	2.688802e-01	2.688802e-01
99.856995	1.333147	dec_choice	1.333147	16.000000	n/a	8	2.695312e-01	2.695312e-01
99.856995	1.333147	dec_nonsocial_accept	1.333147	16.000000	n/a	8	1.895161e-01	1.895161e-01
99.856995	1.333147	dec_accept	1.333147	16.000000	n/a	8	1.674107e-01	1.674107e-01
99.856995	1.333147	dec_nonsocial_accept_high	1.333147	16.000000	n/a	8	2.077206e-01	2.077206e-01
107.507190	1.333111	dec_social_choice	1.333111	16.000000	n/a	8	2.688802e-01	2.688802e-01
107.507190	1.333111	dec_choice	1.333111	16.000000	n/a	8	2.682292e-01	2.682292e-01
107.507190	1.333111	dec_social_accept	1.333111	16.000000	n/a	8	1.895161e-01	1.895161e-01
107.507190	1.333111	dec_accept	1.333111	16.000000	n/a	8	2.077206e-01	2.077206e-01
107.507190	1.333111	dec_social_high	1.333111	16.000000	n/a	8	2.682292e-01	2.682292e-01
107.507190	1.333111	dec_social_accept_high	1.333111	16.000000	n/a	8	2.682292e-01	2.682292e-01
115.157130	1.349686	dec_nonsocial_choice	1.349686	32.000000	n/a	8	1.888021e-02	1.888021e-02
115.157130	1.349686	dec_choice	1.349686	32.000000	n/a	8	1.953125e-02	1.953125e-02
115.157130	1.349686	dec_nonsocial_accept	1.349686	32.000000	n/a	8	-6.048387e-02	-6.048387e-02
115.157130	1.349686	dec_accept	1.349686	32.000000	n/a	8	-8.258929e-02	-8.258929e-02
115.157130	1.349686	dec_nonsocial_accept_high	1.349686	32.000000	n/a	8	-4.227941e-02	-4.227941e-02
122.806240	1.634080	dec_nonsocial_choice	1.634080	16.000000	n/a	8	2.688802e-01	2.688802e-01
122.806240	1.634080	dec_choice	1.634080	16.000000	n/a	8	2.695312e-01	2.695312e-01
122.806240	1.634080	dec_nonsocial_accept	1.634080	16.000000	n/a	8	1.895161e-01	1.895161e-01
122.806240	1.634080	dec_accept	1.634080	16.000000	n/a	8	1.674107e-01	1.674107e-01
122.806240	1.634080	dec_nonsocial_accept_high	1.634080	16.000000	n/a	8	2.077206e-01	2.077206e-01
132.057220	2.349552	dec_social_choice	2.349552	32.000000	n/a	3	-1.373698e-01	-1.373698e-01
132.057220	2.349552	dec_choice	2.349552	32.000000	n/a	3	-1.380208e-01	-1.380208e-01
132.057220	2.349552	dec_social_accept	2.349552	32.000000	n/a	3	-2.167339e-01	-2.167339e-01
132.057220	2.349552	dec_accept	2.349552	32.000000	n/a	3	-1.985294e-01	-1.985294e-01
132.057220	2.349552	dec_social_accept_low	2.349552	32.000000	n/a	3	-1.380208e-01	-1.380208e-01
138.890240	1.115927	dec_nonsocial_choice	1.115927	32.000000	n/a	0	0	-2.311198e-01
138.890240	1.115927	dec_choice	1.115927	32.000000	n/a	0	0	-2.304688e-01
138.890240	1.115927	dec_nonsocial_reject	1.115927	32.000000	n/a	0	0	7.352941e-03
138.890240	1.115927	dec_reject	1.115927	32.000000	n/a	0	0	6.250000e-03
138.890240	1.115927	dec_nonsocial_low	1.115927	32.000000	n/a	0	-2.304688e-01	-2.304688e-01
138.890240	1.115927	dec_nonsocial_reject_low	1.115927	32.000000	n/a	3	6.250000e-03	-8.750000e-02
148.156570	2.183743	dec_nonsocial_choice	2.183743	32.000000	n/a	3	-1.373698e-01	-1.373698e-01
148.156570	2.183743	dec_choice	2.183743	32.000000	n/a	3	-1.367188e-01	-1.367188e-01
148.156570	2.183743	dec_nonsocial_accept	2.183743	32.000000	n/a	3	-2.167339e-01	-2.167339e-01
148.156570	2.183743	dec_accept	2.183743	32.000000	n/a	3	-2.388393e-01	-2.388393e-01
148.156570	2.183743	dec_nonsocial_low	2.183743	32.000000	n/a	3	-1.367188e-01	-1.367188e-01
148.156570	2.183743	dec_nonsocial_accept_low	2.183743	32.000000	n/a	3	-2.388393e-01	-2.388393e-01
155.806500	1.516800	dec_social_choice	1.516800	32.000000	n/a	8	1.888021e-02	1.888021e-02
155.806500	1.516800	dec_choice	1.516800	32.000000	n/a	8	1.822917e-02	1.822917e-02
155.806500	1.516800	dec_social_accept	1.516800	32.000000	n/a	8	-6.048387e-02	-6.048387e-02
155.806500	1.516800	dec_accept	1.516800	32.000000	n/a	8	-4.227941e-02	-4.227941e-02
155.806500	1.516800	dec_social_high	1.516800	32.000000	n/a	8	1.822917e-02	1.822917e-02
155.806500	1.516800	dec_social_accept_high	1.516800	32.000000	n/a	8	1.822917e-02	1.822917e-02
162.640140	1.366008	dec_nonsocial_choice	1.366008	16.000000	n/a	8	2.688802e-01	2.688802e-01
162.640140	1.366008	dec_choice	1.366008	16.000000	n/a	8	2.695312e-01	2.695312e-01
162.640140	1.366008	dec_nonsocial_accept	1.366008	16.000000	n/a	8	1.895161e-01	1.895161e-01
162.640140	1.366008	dec_accept	1.366008	16.000000	n/a	8	1.674107e-01	1.674107e-01
162.640140	1.366008	dec_nonsocial_accept_high	1.366008	16.000000	n/a	8	2.077206e-01	2.077206e-01
169.473180	1.482845	dec_social_choice	1.482845	32.000000	n/a	0	0	-2.311198e-01
169.473180	1.482845	dec_choice	1.482845	32.000000	n/a	0	0	-2.317708e-01
169.473180	1.482845	dec_social_reject	1.482845	32.000000	n/a	0	0	-2.389706e-02
169.473180	1.482845	dec_reject	1.482845	32.000000	n/a	0	0	-2.232143e-02
169.473180	1.482845	dec_social_low	1.482845	32.000000	n/a	0	-2.317708e-01	-2.317708e-01
169.473180	1.482845	dec_social_reject_low	1.482845	32.000000	n/a	2	-1.692708e-01	-2.317708e-01
176.306760	1.016064	dec_social_choice	1.016064	32.000000	n/a	16	2.688802e-01	2.688802e-01
176.306760	1.016064	dec_choice	1.016064	32.000000	n/a	16	2.682292e-01	2.682292e-01
176.306760	1.016064	dec_social_accept	1.016064	32.000000	n/a	16	1.895161e-01	1.895161e-01
176.306760	1.016064	dec_accept	1.016064	32.000000	n/a	16	2.077206e-01	2.077206e-01
176.306760	1.016064	dec_social_high	1.016064	32.000000	n/a	16	2.682292e-01	2.682292e-01
176.306760	1.016064	dec_social_accept_high	1.016064	32.000000	n/a	16	2.682292e-01	2.682292e-01
183.140470	1.582768	dec_social_choice	1.582768	16.000000	n/a	4	1.888021e-02	1.888021e-02
183.140470	1.582768	dec_choice	1.582768	16.000000	n/a	4	1.822917e-02	1.822917e-02
183.140470	1.582768	dec_social_accept	1.582768	16.000000	n/a	4	-6.048387e-02	-6.048387e-02
183.140470	1.582768	dec_accept	1.582768	16.000000	n/a	4	-4.227941e-02	-4.227941e-02
183.140470	1.582768	dec_social_high	1.582768	16.000000	n/a	4	1.822917e-02	1.822917e-02
183.140470	1.582768	dec_social_accept_high	1.582768	16.000000	n/a	4	1.822917e-02	1.822917e-02
190.790190	1.050259	dec_nonsocial_choice	1.050259	16.000000	n/a	0	0	-2.311198e-01
190.790190	1.050259	dec_choice	1.050259	16.000000	n/a	0	0	-2.304688e-01
190.790190	1.050259	dec_nonsocial_reject	1.050259	16.000000	n/a	0	0	-2.389706e-02
190.790190	1.050259	dec_reject	1.050259	16.000000	n/a	0	0	-2.500000e-02
190.790190	1.050259	dec_nonsocial_low	1.050259	16.000000	n/a	0	-2.304688e-01	-2.304688e-01
190.790190	1.050259	dec_nonsocial_reject_low	1.050259	16.000000	n/a	1	-2.500000e-02	-8.750000e-02
197.624160	1.432593	dec_social_choice	1.432593	16.000000	n/a	4	1.888021e-02	1.888021e-02
197.624160	1.432593	dec_choice	1.432593	16.000000	n/a	4	1.822917e-02	1.822917e-02
197.624160	1.432593	dec_social_accept	1.432593	16.000000	n/a	4	-6.048387e-02	-6.048387e-02
197.624160	1.432593	dec_accept	1.432593	16.000000	n/a	4	-4.227941e-02	-4.227941e-02
197.624160	1.432593	dec_social_high	1.432593	16.000000	n/a	4	1.822917e-02	1.822917e-02
197.624160	1.432593	dec_social_accept_high	1.432593	16.000000	n/a	4	1.822917e-02	1.822917e-02
204.455410	1.883846	dec_social_choice	1.883846	16.000000	n/a	4	1.888021e-02	1.888021e-02
204.455410	1.883846	dec_choice	1.883846	16.000000	n/a	4	1.822917e-02	1.822917e-02
204.455410	1.883846	dec_social_accept	1.883846	16.000000	n/a	4	-6.048387e-02	-6.048387e-02
204.455410	1.883846	dec_accept	1.883846	16.000000	n/a	4	-4.227941e-02	-4.227941e-02
204.455410	1.883846	dec_social_accept_high	1.883846	16.000000	n/a	4	1.822917e-02	1.822917e-02
212.106670	1.283401	dec_nonsocial_choice	1.283401	16.000000	n/a	0	0	-2.311198e-01
212.106670	1.283401	dec_choice	1.283401	16.000000	n/a	0	0	-2.304688e-01
212.106670	1.283401	dec_nonsocial_reject	1.283401	16.000000	n/a	0	0	-2.389706e-02
212.106670	1.283401	dec_reject	1.283401	16.000000	n/a	0	0	-2.500000e-02
212.106670	1.283401	dec_nonsocial_low	1.283401	16.000000	n/a	0	-2.304688e-01	-2.304688e-01
212.106670	1.283401	dec_nonsocial_reject_low	1.283401	16.000000	n/a	1	-2.500000e-02	-8.750000e-02
219.757230	1.499788	dec_nonsocial_choice	1.499788	16.000000	n/a	0	0	-2.311198e-01
219.757230	1.499788	dec_choice	1.499788	16.000000	n/a	0	0	-2.304688e-01
219.757230	1.499788	dec_nonsocial_reject	1.499788	16.000000	n/a	0	0	3.860294e-02
219.757230	1.499788	dec_reject	1.499788	16.000000	n/a	0	0	3.750000e-02
219.757230	1.499788	dec_nonsocial_reject_low	1.499788	16.000000	n/a	2	4.017857e-02	-8.482143e-02
229.024280	1.348893	dec_social_choice	1.348893	16.000000	n/a	0	0	-2.311198e-01
229.024280	1.348893	dec_choice	1.348893	16.000000	n/a	0	0	-2.317708e-01
229.024280	1.348893	dec_social_reject	1.348893	16.000000	n/a	0	0	-2.389706e-02
229.024280	1.348893	dec_reject	1.348893	16.000000	n/a	0	0	-2.232143e-02
229.024280	1.348893	dec_social_low	1.348893	16.000000	n/a	0	-2.317708e-01	-2.317708e-01
229.024280	1.348893	dec_social_reject_low	1.348893	16.000000	n/a	1	-1.692708e-01	-2.317708e-01
241.506420	1.150269	dec_social_choice	1.150269	16.000000	n/a	0	0	-2.311198e-01
241.506420	1.150269	dec_choice	1.150269	16.000000	n/a	0	0	-2.317708e-01
241.506420	1.150269	dec_social_reject	1.150269	16.000000	n/a	0	0	3.860294e-02
241.506420	1.150269	dec_reject	1.150269	16.000000	n/a	0	0	4.017857e-02
241.506420	1.150269	dec_social_low	1.150269	16.000000	n/a	0	-2.317708e-01	-2.317708e-01
241.506420	1.150269	dec_social_reject_low	1.150269	16.000000	n/a	2	-1.067708e-01	-2.317708e-01
248.339300	2.100303	dec_nonsocial_choice	2.100303	16.000000	n/a	0	0	-2.311198e-01
248.339300	2.100303	dec_choice	2.100303	16.000000	n/a	0	0	-2.304688e-01
248.339300	2.100303	dec_nonsocial_reject	2.100303	16.000000	n/a	0	0	3.860294e-02
248.339300	2.100303	dec_reject	2.100303	16.000000	n/a	0	0	3.750000e-02
248.339300	2.100303	dec_nonsocial_reject_low	2.100303	16.000000	n/a	2	4.017857e-02	-8.482143e-02
255.173130	0.933522	dec_nonsocial_choice	0.933522	16.000000	n/a	4	1.888021e-02	1.888021e-02
255.173130	0.933522	dec_choice	0.933522	16.000000	n/a	4	1.953125e-02	1.953125e-02
255.173130	0.933522	dec_nonsocial_accept	0.933522	16.000000	n/a	4	-6.048387e-02	-6.048387e-02
255.173130	0.933522	dec_accept	0.933522	16.000000	n/a	4	-8.258929e-02	-8.258929e-02
255.173130	0.933522	dec_nonsocial_high	0.933522	16.000000	n/a	4	1.953125e-02	1.953125e-02
255.173130	0.933522	dec_nonsocial_accept_high	0.933522	16.000000	n/a	4	-8.258929e-02	-8.258929e-02
264.423280	1.250241	dec_social_choice	1.250241	16.000000	n/a	8	2.688802e-01	2.688802e-01
264.423280	1.250241	dec_choice	1.250241	16.000000	n/a	8	2.682292e-01	2.682292e-01
264.423280	1.250241	dec_social_accept	1.250241	16.000000	n/a	8	1.895161e-01	1.895161e-01
264.423280	1.250241	dec_accept	1.250241	16.000000	n/a	8	2.077206e-01	2.077206e-01
264.423280	1.250241	dec_social_high	1.250241	16.000000	n/a	8	2.682292e-01	2.682292e-01
264.423280	1.250241	dec_social_accept_high	1.250241	16.000000	n/a	8	2.682292e-01	2.682292e-01
275.290920	1.115272	dec_nonsocial_choice	1.115272	32.000000	n/a	16	2.688802e-01	2.688802e-01
275.290920	1.115272	dec_choice	1.115272	32.000000	n/a	16	2.695312e-01	2.695312e-01
275.290920	1.115272	dec_nonsocial_accept	1.115272	32.000000	n/a	16	1.895161e-01	1.895161e-01
275.290920	1.115272	dec_accept	1.115272	32.000000	n/a	16	1.674107e-01	1.674107e-01
275.290920	1.115272	dec_nonsocial_high	1.115272	32.000000	n/a	16	2.695312e-01	2.695312e-01
275.290920	1.115272	dec_nonsocial_accept_high	1.115272	32.000000	n/a	16	1.674107e-01	1.674107e-01
282.940030	1.684117	dec_social_choice	1.684117	16.000000	n/a	8	2.688802e-01	2.688802e-01
282.940030	1.684117	dec_choice	1.684117	16.000000	n/a	8	2.682292e-01	2.682292e-01
282.940030	1.684117	dec_social_accept	1.684117	16.000000	n/a	8	1.895161e-01	1.895161e-01
282.940030	1.684117	dec_accept	1.684117	16.000000	n/a	8	2.077206e-01	2.077206e-01
282.940030	1.684117	dec_social_high	1.684117	16.000000	n/a	8	2.682292e-01	2.682292e-01
282.940030	1.684117	dec_social_accept_high	1.684117	16.000000	n/a	8	2.682292e-01	2.682292e-01
290.573240	1.600068	dec_nonsocial_choice	1.600068	32.000000	n/a	16	2.688802e-01	2.688802e-01
290.573240	1.600068	dec_choice	1.600068	32.000000	n/a	16	2.695312e-01	2.695312e-01
290.573240	1.600068	dec_nonsocial_accept	1.600068	32.000000	n/a	16	1.895161e-01	1.895161e-01
290.573240	1.600068	dec_accept	1.600068	32.000000	n/a	16	1.674107e-01	1.674107e-01
290.573240	1.600068	dec_nonsocial_high	1.600068	32.000000	n/a	16	2.695312e-01	2.695312e-01
290.573240	1.600068	dec_nonsocial_accept_high	1.600068	32.000000	n/a	16	1.674107e-01	1.674107e-01
297.406650	1.483319	dec_nonsocial_choice	1.483319	32.000000	n/a	0	0	-2.311198e-01
297.406650	1.483319	dec_choice	1.483319	32.000000	n/a	0	0	-2.304688e-01
297.406650	1.483319	dec_nonsocial_reject	1.483319	32.000000	n/a	0	0	7.352941e-03
297.406650	1.483319	dec_reject	1.483319	32.000000	n/a	0	0	6.250000e-03
297.406650	1.483319	dec_nonsocial_reject_low	1.483319	32.000000	n/a	3	8.928571e-03	-8.482143e-02
304.240330	1.433946	dec_nonsocial_choice	1.433946	16.000000	n/a	4	1.888021e-02	1.888021e-02
304.240330	1.433946	dec_choice	1.433946	16.000000	n/a	4	1.953125e-02	1.953125e-02
304.240330	1.433946	dec_nonsocial_accept	1.433946	16.000000	n/a	4	-6.048387e-02	-6.048387e-02
304.240330	1.433946	dec_accept	1.433946	16.000000	n/a	4	-8.258929e-02	-8.258929e-02
304.240330	1.433946	dec_nonsocial_high	1.433946	16.000000	n/a	4	1.953125e-02	1.953125e-02
304.240330	1.433946	dec_nonsocial_accept_high	1.433946	16.000000	n/a	4	-8.258929e-02	-8.258929e-02
311.073270	1.833311	dec_nonsocial_choice	1.833311	32.000000	n/a	8	1.888021e-02	1.888021e-02
311.073270	1.833311	dec_choice	1.833311	32.000000	n/a	8	1.953125e-02	1.953125e-02
311.073270	1.833311	dec_nonsocial_accept	1.833311	32.000000	n/a	8	-6.048387e-02	-6.048387e-02
311.073270	1.833311	dec_accept	1.833311	32.000000	n/a	8	-8.258929e-02	-8.258929e-02
311.073270	1.833311	dec_nonsocial_accept_high	1.833311	32.000000	n/a	8	-4.227941e-02	-4.227941e-02
318.723240	1.166232	dec_nonsocial_choice	1.166232	16.000000	n/a	0	0	-2.311198e-01
318.723240	1.166232	dec_choice	1.166232	16.000000	n/a	0	0	-2.304688e-01
318.723240	1.166232	dec_nonsocial_reject	1.166232	16.000000	n/a	0	0	-2.389706e-02
318.723240	1.166232	dec_reject	1.166232	16.000000	n/a	0	0	-2.500000e-02
318.723240	1.166232	dec_nonsocial_low	1.166232	16.000000	n/a	0	-2.304688e-01	-2.304688e-01
318.723240	1.166232	dec_nonsocial_reject_low	1.166232	16.000000	n/a	1	-2.500000e-02	-8.750000e-02
325.556850	1.199620	dec_social_choice	1.199620	32.000000	n/a	0	0	-2.311198e-01
325.556850	1.199620	dec_choice	1.199620	32.000000	n/a	0	0	-2.317708e-01
325.556850	1.199620	dec_social_reject	1.199620	32.000000	n/a	0	0	-2.389706e-02
325.556850	1.199620	dec_reject	1.199620	32.000000	n/a	0	0	-2.232143e-02
325.556850	1.199620	dec_social_low	1.199620	32.000000	n/a	0	-2.317708e-01	-2.317708e-01
325.556850	1.199620	dec_social_reject_low	1.199620	32.000000	n/a	2	-1.692708e-01	-2.317708e-01
332.390700	1.082644	dec_nonsocial_choice	1.082644	16.000000	n/a	0	0	-2.311198e-01
332.390700	1.082644	dec_choice	1.082644	16.000000	n/a	0	0	-2.304688e-01
332.390700	1.082644	dec_nonsocial_reject	1.082644	16.000000	n/a	0	0	-2.389706e-02
332.390700	1.082644	dec_reject	1.082644	16.000000	n/a	0	0	-2.500000e-02
332.390700	1.082644	dec_nonsocial_low	1.082644	16.000000	n/a	0	-2.304688e-01	-2.304688e-01
332.390700	1.082644	dec_nonsocial_reject_low	1.082644	16.000000	n/a	1	-2.500000e-02	-8.750000e-02
339.222600	1.583507	dec_social_choice	1.583507	16.000000	n/a	0	0	-2.311198e-01
339.222600	1.583507	dec_choice	1.583507	16.000000	n/a	0	0	-2.317708e-01
339.222600	1.583507	dec_social_reject	1.583507	16.000000	n/a	0	0	3.860294e-02
339.222600	1.583507	dec_reject	1.583507	16.000000	n/a	0	0	4.017857e-02
339.222600	1.583507	dec_social_reject_low	1.583507	16.000000	n/a	2	-1.067708e-01	-2.317708e-01
346.056370	1.283425	dec_social_choice	1.283425	16.000000	n/a	8	2.688802e-01	2.688802e-01
346.056370	1.283425	dec_choice	1.283425	16.000000	n/a	8	2.682292e-01	2.682292e-01
346.056370	1.283425	dec_social_accept	1.283425	16.000000	n/a	8	1.895161e-01	1.895161e-01
346.056370	1.283425	dec_accept	1.283425	16.000000	n/a	8	2.077206e-01	2.077206e-01
346.056370	1.283425	dec_social_high	1.283425	16.000000	n/a	8	2.682292e-01	2.682292e-01
346.056370	1.283425	dec_social_accept_high	1.283425	16.000000	n/a	8	2.682292e-01	2.682292e-01
356.923460	1.499299	dec_nonsocial_choice	1.499299	32.000000	n/a	16	2.688802e-01	2.688802e-01
356.923460	1.499299	dec_choice	1.499299	32.000000	n/a	16	2.695312e-01	2.695312e-01
356.923460	1.499299	dec_nonsocial_accept	1.499299	32.000000	n/a	16	1.895161e-01	1.895161e-01
356.923460	1.499299	dec_accept	1.499299	32.000000	n/a	16	1.674107e-01	1.674107e-01
356.923460	1.499299	dec_nonsocial_accept_high	1.499299	32.000000	n/a	16	2.077206e-01	2.077206e-01
363.756500	1.383539	dec_social_choice	1.383539	32.000000	n/a	0	0	-2.311198e-01
363.756500	1.383539	dec_choice	1.383539	32.000000	n/a	0	0	-2.317708e-01
363.756500	1.383539	dec_social_reject	1.383539	32.000000	n/a	0	0	7.352941e-03
363.756500	1.383539	dec_reject	1.383539	32.000000	n/a	0	0	8.928571e-03
363.756500	1.383539	dec_social_reject_low	1.383539	32.000000	n/a	3	-1.380208e-01	-2.317708e-01
370.589780	0.866453	dec_social_choice	0.866453	32.000000	n/a	0	0	-2.311198e-01
370.589780	0.866453	dec_choice	0.866453	32.000000	n/a	0	0	-2.317708e-01
370.589780	0.866453	dec_social_reject	0.866453	32.000000	n/a	0	0	-2.389706e-02
370.589780	0.866453	dec_reject	0.866453	32.000000	n/a	0	0	-2.232143e-02
370.589780	0.866453	dec_social_reject_low	0.866453	32.000000	n/a	2	-1.692708e-01	-2.317708e-01
