onset	duration	trial_type	response_time	Endowment	Decision	Offer
4.509937	2	cue_nonsocial	n/a	16	n/a	n/a
4.509937	2	cue_nonsocial_low	n/a	16	n/a	n/a
6.515404	1.349914	dec_nonsocial_low	1.349914	16	n/a	2
6.515404	1.349914	dec_nonsocial_low_reject	1.349914	16	reject	2
13.775998	2	cue_nonsocial	n/a	32	n/a	n/a
13.775998	2	cue_nonsocial_high	n/a	32	n/a	n/a
15.782186	2.033118	dec_nonsocial_high	2.033118	32	n/a	2
15.782186	2.033118	dec_nonsocial_high_reject	2.033118	32	reject	2
21.426315	2	cue_nonsocial	n/a	16	n/a	n/a
21.426315	2	cue_nonsocial_low	n/a	16	n/a	n/a
23.431860	1.200071	dec_nonsocial_low	1.200071	16	n/a	8
23.431860	1.200071	dec_nonsocial_low_accept	1.200071	16	accept	8
28.259304	2	cue_nonsocial	n/a	32	n/a	n/a
28.259304	2	cue_nonsocial_high	n/a	32	n/a	n/a
30.265970	1.015460	dec_nonsocial_high	1.015460	32	n/a	2
30.265970	1.015460	dec_nonsocial_high_reject	1.015460	32	reject	2
35.092632	2	cue_nonsocial	n/a	32	n/a	n/a
35.092632	2	cue_nonsocial_high	n/a	32	n/a	n/a
37.098760	0.966090	dec_nonsocial_high	0.966090	32	n/a	8
37.098760	0.966090	dec_nonsocial_high_accept	0.966090	32	accept	8
42.742783	2	cue_nonsocial	n/a	16	n/a	n/a
42.742783	2	cue_nonsocial_low	n/a	16	n/a	n/a
44.747826	1.150650	dec_nonsocial_low	1.150650	16	n/a	2
44.747826	1.150650	dec_nonsocial_low_reject	1.150650	16	reject	2
49.576270	2	cue_nonsocial	n/a	16	n/a	n/a
49.576270	2	cue_nonsocial_low	n/a	16	n/a	n/a
51.582010	1.033350	dec_nonsocial_low	1.033350	16	n/a	1
51.582010	1.033350	dec_nonsocial_low_reject	1.033350	16	reject	1
62.059544	2	cue_nonsocial	n/a	16	n/a	n/a
62.059544	2	cue_nonsocial_low	n/a	16	n/a	n/a
64.065150	1.066201	dec_nonsocial_low	1.066201	16	n/a	2
64.065150	1.066201	dec_nonsocial_low_reject	1.066201	16	reject	2
71.398140	2	cue_social	n/a	16	n/a	n/a
71.398140	2	cue_social_low	n/a	16	n/a	n/a
73.316020	1.199391	dec_social_low	1.199391	16	n/a	2
73.316020	1.199391	dec_social_low_reject	1.199391	16	reject	2
78.199030	2	cue_social	n/a	32	n/a	n/a
78.199030	2	cue_social_high	n/a	32	n/a	n/a
80.147860	0.967084	dec_social_high	0.967084	32	n/a	8
80.147860	0.967084	dec_social_high_accept	0.967084	32	accept	8
85.776436	2	cue_nonsocial	n/a	16	n/a	n/a
85.776436	2	cue_nonsocial_low	n/a	16	n/a	n/a
87.782234	2.049724	dec_nonsocial_low	2.049724	16	n/a	4
87.782234	2.049724	dec_nonsocial_low_reject	2.049724	16	reject	4
92.609440	2	cue_nonsocial	n/a	16	n/a	n/a
92.609440	2	cue_nonsocial_low	n/a	16	n/a	n/a
94.615776	0.832798	dec_nonsocial_low	0.832798	16	n/a	1
94.615776	0.832798	dec_nonsocial_low_reject	0.832798	16	reject	1
100.326010	2	cue_social	n/a	32	n/a	n/a
100.326010	2	cue_social_high	n/a	32	n/a	n/a
102.264320	1.617106	dec_social_high	1.617106	32	n/a	2
102.264320	1.617106	dec_social_high_reject	1.617106	32	reject	2
107.994500	2	cue_social	n/a	32	n/a	n/a
107.994500	2	cue_social_high	n/a	32	n/a	n/a
109.914260	0.901114	dec_social_high	0.901114	32	n/a	3
109.914260	0.901114	dec_social_high_reject	0.901114	32	reject	3
114.812880	2	cue_social	n/a	16	n/a	n/a
114.812880	2	cue_social_low	n/a	16	n/a	n/a
116.748130	1.133825	dec_social_low	1.133825	16	n/a	8
116.748130	1.133825	dec_social_low_accept	1.133825	16	accept	8
122.392840	2	cue_nonsocial	n/a	16	n/a	n/a
122.392840	2	cue_nonsocial_low	n/a	16	n/a	n/a
124.399140	1.015485	dec_nonsocial_low	1.015485	16	n/a	8
124.399140	1.015485	dec_nonsocial_low_accept	1.015485	16	accept	8
130.109970	2	cue_social	n/a	16	n/a	n/a
130.109970	2	cue_social_low	n/a	16	n/a	n/a
132.048220	2.000557	dec_social_low	2.000557	16	n/a	4
132.048220	2.000557	dec_social_low_accept	2.000557	16	accept	4
136.876020	2	cue_nonsocial	n/a	32	n/a	n/a
136.876020	2	cue_nonsocial_high	n/a	32	n/a	n/a
138.881840	0.816249	dec_nonsocial_high	0.816249	32	n/a	16
138.881840	0.816249	dec_nonsocial_high_accept	0.816249	32	accept	16
143.709520	2	cue_nonsocial	n/a	16	n/a	n/a
143.709520	2	cue_nonsocial_low	n/a	16	n/a	n/a
145.715160	1.383361	dec_nonsocial_low	1.383361	16	n/a	1
145.715160	1.383361	dec_nonsocial_low_reject	1.383361	16	reject	1
151.424930	2	cue_social	n/a	16	n/a	n/a
151.424930	2	cue_social_low	n/a	16	n/a	n/a
153.365680	1.949388	dec_social_low	1.949388	16	n/a	2
153.365680	1.949388	dec_social_low_reject	1.949388	16	reject	2
159.069660	2	cue_social	n/a	16	n/a	n/a
159.069660	2	cue_social_low	n/a	16	n/a	n/a
161.015610	0.732802	dec_social_low	0.732802	16	n/a	1
161.015610	0.732802	dec_social_low_reject	0.732802	16	reject	1
166.747900	2	cue_social	n/a	16	n/a	n/a
166.747900	2	cue_social_low	n/a	16	n/a	n/a
168.665950	1.265567	dec_social_low	1.265567	16	n/a	4
168.665950	1.265567	dec_social_low_accept	1.265567	16	accept	4
173.493040	2	cue_nonsocial	n/a	16	n/a	n/a
173.493040	2	cue_nonsocial_low	n/a	16	n/a	n/a
175.498550	1.133197	dec_nonsocial_low	1.133197	16	n/a	1
175.498550	1.133197	dec_nonsocial_low_reject	1.133197	16	reject	1
180.391170	2	cue_social	n/a	16	n/a	n/a
180.391170	2	cue_social_low	n/a	16	n/a	n/a
182.331160	1.283936	dec_social_low	1.283936	16	n/a	2
182.331160	1.283936	dec_social_low_reject	1.283936	16	reject	2
187.159470	2	cue_nonsocial	n/a	16	n/a	n/a
187.159470	2	cue_nonsocial_low	n/a	16	n/a	n/a
189.165180	1.216920	dec_nonsocial_low	1.216920	16	n/a	4
189.165180	1.216920	dec_nonsocial_low_accept	1.216920	16	accept	4
196.442610	2	cue_social	n/a	32	n/a	n/a
196.442610	2	cue_social_high	n/a	32	n/a	n/a
198.431240	1.466630	dec_social_high	1.466630	32	n/a	16
198.431240	1.466630	dec_social_high_accept	1.466630	32	accept	16
205.762660	2	cue_social	n/a	16	n/a	n/a
205.762660	2	cue_social_low	n/a	16	n/a	n/a
207.681990	1.232169	dec_social_low	1.232169	16	n/a	2
207.681990	1.232169	dec_social_low_reject	1.232169	16	reject	2
213.326550	2	cue_nonsocial	n/a	16	n/a	n/a
213.326550	2	cue_nonsocial_low	n/a	16	n/a	n/a
215.331220	1.783997	dec_nonsocial_low	1.783997	16	n/a	2
215.331220	1.783997	dec_nonsocial_low_reject	1.783997	16	reject	2
220.975980	2	cue_nonsocial	n/a	16	n/a	n/a
220.975980	2	cue_nonsocial_low	n/a	16	n/a	n/a
222.981610	1.033572	dec_nonsocial_low	1.033572	16	n/a	2
222.981610	1.033572	dec_nonsocial_low_reject	1.033572	16	reject	2
231.842480	2	cue_nonsocial	n/a	16	n/a	n/a
231.842480	2	cue_nonsocial_low	n/a	16	n/a	n/a
233.848300	0.999979	dec_nonsocial_low	0.999979	16	n/a	8
233.848300	0.999979	dec_nonsocial_low_accept	0.999979	16	accept	8
238.676240	2	cue_nonsocial	n/a	16	n/a	n/a
238.676240	2	cue_nonsocial_low	n/a	16	n/a	n/a
240.681370	2.083636	dec_nonsocial_low	2.083636	16	n/a	4
240.681370	2.083636	dec_nonsocial_low_accept	2.083636	16	accept	4
245.509280	2	cue_nonsocial	n/a	32	n/a	n/a
245.509280	2	cue_nonsocial_high	n/a	32	n/a	n/a
247.514720	0.883653	dec_nonsocial_high	0.883653	32	n/a	16
247.514720	0.883653	dec_nonsocial_high_accept	0.883653	32	accept	16
252.342470	2	cue_nonsocial	n/a	32	n/a	n/a
252.342470	2	cue_nonsocial_high	n/a	32	n/a	n/a
254.349290	1.249164	dec_nonsocial_high	1.249164	32	n/a	16
254.349290	1.249164	dec_nonsocial_high_accept	1.249164	32	accept	16
259.177030	2	cue_nonsocial	n/a	16	n/a	n/a
259.177030	2	cue_nonsocial_low	n/a	16	n/a	n/a
261.181820	1.015983	dec_nonsocial_low	1.015983	16	n/a	2
261.181820	1.015983	dec_nonsocial_low_reject	1.015983	16	reject	2
266.093440	2	cue_social	n/a	16	n/a	n/a
266.093440	2	cue_social_low	n/a	16	n/a	n/a
268.014800	0.882939	dec_social_low	0.882939	16	n/a	8
268.014800	0.882939	dec_social_low_accept	0.882939	16	accept	8
276.973630	2	cue_social	n/a	32	n/a	n/a
276.973630	2	cue_social_high	n/a	32	n/a	n/a
278.881530	1.266833	dec_social_high	1.266833	32	n/a	2
278.881530	1.266833	dec_social_high_reject	1.266833	32	reject	2
286.203600	2	cue_social	n/a	16	n/a	n/a
286.203600	2	cue_social_low	n/a	16	n/a	n/a
288.131350	1.050447	dec_social_low	1.050447	16	n/a	1
288.131350	1.050447	dec_social_low_reject	1.050447	16	reject	1
293.041080	2	cue_social	n/a	16	n/a	n/a
293.041080	2	cue_social_low	n/a	16	n/a	n/a
294.963840	1.851210	dec_social_low	1.851210	16	n/a	2
294.963840	1.851210	dec_social_low_reject	1.851210	16	reject	2
303.939000	2	cue_social	n/a	32	n/a	n/a
303.939000	2	cue_social_high	n/a	32	n/a	n/a
305.832060	1.115571	dec_social_high	1.115571	32	n/a	8
305.832060	1.115571	dec_social_high_accept	1.115571	32	accept	8
313.187320	2	cue_social	n/a	32	n/a	n/a
313.187320	2	cue_social_high	n/a	32	n/a	n/a
315.099180	1.132397	dec_social_high	1.132397	32	n/a	2
315.099180	1.132397	dec_social_high_reject	1.132397	32	reject	2
319.925930	2	cue_nonsocial	n/a	16	n/a	n/a
319.925930	2	cue_nonsocial_low	n/a	16	n/a	n/a
321.931520	1.433449	dec_nonsocial_low	1.433449	16	n/a	4
321.931520	1.433449	dec_nonsocial_low_accept	1.433449	16	accept	4
326.833160	2	cue_social	n/a	16	n/a	n/a
326.833160	2	cue_social_low	n/a	16	n/a	n/a
328.764800	1.432813	dec_social_low	1.432813	16	n/a	4
328.764800	1.432813	dec_social_low_accept	1.432813	16	accept	4
334.481450	2	cue_social	n/a	32	n/a	n/a
334.481450	2	cue_social_high	n/a	32	n/a	n/a
336.415130	1.033059	dec_social_high	1.033059	32	n/a	8
336.415130	1.033059	dec_social_high_accept	1.033059	32	accept	8
341.341520	2	cue_social	n/a	32	n/a	n/a
341.341520	2	cue_social_high	n/a	32	n/a	n/a
343.248900	1.065615	dec_social_high	1.065615	32	n/a	16
343.248900	1.065615	dec_social_high_accept	1.065615	32	accept	16
348.076970	2	cue_nonsocial	n/a	16	n/a	n/a
348.076970	2	cue_nonsocial_low	n/a	16	n/a	n/a
350.081270	1.650320	dec_nonsocial_low	1.650320	16	n/a	4
350.081270	1.650320	dec_nonsocial_low_accept	1.650320	16	accept	4
357.433500	2	cue_social	n/a	32	n/a	n/a
357.433500	2	cue_social_high	n/a	32	n/a	n/a
359.331240	1.350271	dec_social_high	1.350271	32	n/a	16
359.331240	1.350271	dec_social_high_accept	1.350271	32	accept	16
364.223660	2	cue_social	n/a	32	n/a	n/a
364.223660	2	cue_social_high	n/a	32	n/a	n/a
366.165280	0.932899	dec_social_high	0.932899	32	n/a	16
366.165280	0.932899	dec_social_high_accept	0.932899	32	accept	16
371.107900	2	cue_social	n/a	32	n/a	n/a
371.107900	2	cue_social_high	n/a	32	n/a	n/a
372.998320	1.083113	dec_social_high	1.083113	32	n/a	2
372.998320	1.083113	dec_social_high_reject	1.083113	32	reject	2
