onset	duration	trial_type	response_time	Endowment	Endowment_pmod	Decision	Decision_pmod	Offer_pmod
4.520109	2	cue_nonsocial	n/a	16	-7	n/a	n/a	n/a
4.520109	2	cue_nonsocial_low	n/a	16	-7	n/a	n/a	n/a
13.787093	2	cue_nonsocial	n/a	16	-7	n/a	n/a	n/a
13.787093	2	cue_nonsocial_low	n/a	16	-7	n/a	n/a	n/a
21.437881	2	cue_nonsocial	n/a	16	-7	n/a	n/a	n/a
21.437881	2	cue_nonsocial_low	n/a	16	-7	n/a	n/a	n/a
29.087234	2	cue_nonsocial	n/a	32	9	n/a	n/a	n/a
29.087234	2	cue_nonsocial_high	n/a	32	9	n/a	n/a	n/a
35.920500	2	cue_nonsocial	n/a	16	-7	n/a	n/a	n/a
35.920500	2	cue_nonsocial_low	n/a	16	-7	n/a	n/a	n/a
43.570637	2	cue_nonsocial	n/a	32	9	n/a	n/a	n/a
43.570637	2	cue_nonsocial_high	n/a	32	9	n/a	n/a	n/a
52.935555	2	cue_social	n/a	16	-7	n/a	n/a	n/a
52.935555	2	cue_social_low	n/a	16	-7	n/a	n/a	n/a
59.671340	2	cue_nonsocial	n/a	16	-7	n/a	n/a	n/a
59.671340	2	cue_nonsocial_low	n/a	16	-7	n/a	n/a	n/a
66.601850	2	cue_social	n/a	16	-7	n/a	n/a	n/a
66.601850	2	cue_social_low	n/a	16	-7	n/a	n/a	n/a
74.153800	2	cue_nonsocial	n/a	32	9	n/a	n/a	n/a
74.153800	2	cue_nonsocial_high	n/a	32	9	n/a	n/a	n/a
81.005230	2	cue_nonsocial	n/a	16	-7	n/a	n/a	n/a
81.005230	2	cue_nonsocial_low	n/a	16	-7	n/a	n/a	n/a
87.961310	2	cue_social	n/a	16	-7	n/a	n/a	n/a
87.961310	2	cue_social_low	n/a	16	-7	n/a	n/a	n/a
97.087105	2	cue_nonsocial	n/a	32	9	n/a	n/a	n/a
97.087105	2	cue_nonsocial_high	n/a	32	9	n/a	n/a	n/a
107.953730	2	cue_nonsocial	n/a	16	-7	n/a	n/a	n/a
107.953730	2	cue_nonsocial_low	n/a	16	-7	n/a	n/a	n/a
114.768380	2	cue_social	n/a	32	9	n/a	n/a	n/a
114.768380	2	cue_social_high	n/a	32	9	n/a	n/a	n/a
121.710500	2	cue_social	n/a	32	9	n/a	n/a	n/a
121.710500	2	cue_social_high	n/a	32	9	n/a	n/a	n/a
129.370320	2	cue_social	n/a	32	9	n/a	n/a	n/a
129.370320	2	cue_social_high	n/a	32	9	n/a	n/a	n/a
138.520950	2	cue_nonsocial	n/a	16	-7	n/a	n/a	n/a
138.520950	2	cue_nonsocial_low	n/a	16	-7	n/a	n/a	n/a
146.261230	2	cue_social	n/a	16	-7	n/a	n/a	n/a
146.261230	2	cue_social_low	n/a	16	-7	n/a	n/a	n/a
153.103450	2	cue_social	n/a	16	-7	n/a	n/a	n/a
153.103450	2	cue_social_low	n/a	16	-7	n/a	n/a	n/a
160.654540	2	cue_nonsocial	n/a	32	9	n/a	n/a	n/a
160.654540	2	cue_nonsocial_high	n/a	32	9	n/a	n/a	n/a
169.904500	2	cue_nonsocial	n/a	32	9	n/a	n/a	n/a
169.904500	2	cue_nonsocial_high	n/a	32	9	n/a	n/a	n/a
176.780490	2	cue_social	n/a	16	-7	n/a	n/a	n/a
176.780490	2	cue_social_low	n/a	16	-7	n/a	n/a	n/a
184.387480	2	cue_nonsocial	n/a	32	9	n/a	n/a	n/a
184.387480	2	cue_nonsocial_high	n/a	32	9	n/a	n/a	n/a
191.220290	2	cue_nonsocial	n/a	32	9	n/a	n/a	n/a
191.220290	2	cue_nonsocial_high	n/a	32	9	n/a	n/a	n/a
202.201690	2	cue_social	n/a	32	9	n/a	n/a	n/a
202.201690	2	cue_social_high	n/a	32	9	n/a	n/a	n/a
209.027190	2	cue_social	n/a	32	9	n/a	n/a	n/a
209.027190	2	cue_social_high	n/a	32	9	n/a	n/a	n/a
218.287350	2	cue_social	n/a	32	9	n/a	n/a	n/a
218.287350	2	cue_social_high	n/a	32	9	n/a	n/a	n/a
225.111450	2	cue_social	n/a	32	9	n/a	n/a	n/a
225.111450	2	cue_social_high	n/a	32	9	n/a	n/a	n/a
231.838330	2	cue_nonsocial	n/a	16	-7	n/a	n/a	n/a
231.838330	2	cue_nonsocial_low	n/a	16	-7	n/a	n/a	n/a
238.670580	2	cue_nonsocial	n/a	32	9	n/a	n/a	n/a
238.670580	2	cue_nonsocial_high	n/a	32	9	n/a	n/a	n/a
245.613800	2	cue_social	n/a	32	9	n/a	n/a	n/a
245.613800	2	cue_social_high	n/a	32	9	n/a	n/a	n/a
257.992920	2	cue_social	n/a	32	9	n/a	n/a	n/a
257.992920	2	cue_social_high	n/a	32	9	n/a	n/a	n/a
264.921750	2	cue_social	n/a	16	-7	n/a	n/a	n/a
264.921750	2	cue_social_low	n/a	16	-7	n/a	n/a	n/a
271.650020	2	cue_social	n/a	16	-7	n/a	n/a	n/a
271.650020	2	cue_social_low	n/a	16	-7	n/a	n/a	n/a
279.304780	2	cue_nonsocial	n/a	32	9	n/a	n/a	n/a
279.304780	2	cue_nonsocial_high	n/a	32	9	n/a	n/a	n/a
286.954070	2	cue_nonsocial	n/a	16	-7	n/a	n/a	n/a
286.954070	2	cue_nonsocial_low	n/a	16	-7	n/a	n/a	n/a
294.603880	2	cue_nonsocial	n/a	16	-7	n/a	n/a	n/a
294.603880	2	cue_nonsocial_low	n/a	16	-7	n/a	n/a	n/a
301.550230	2	cue_social	n/a	16	-7	n/a	n/a	n/a
301.550230	2	cue_social_low	n/a	16	-7	n/a	n/a	n/a
308.269900	2	cue_social	n/a	16	-7	n/a	n/a	n/a
308.269900	2	cue_social_low	n/a	16	-7	n/a	n/a	n/a
319.169340	2	cue_social	n/a	16	-7	n/a	n/a	n/a
319.169340	2	cue_social_low	n/a	16	-7	n/a	n/a	n/a
328.492860	2	cue_social	n/a	16	-7	n/a	n/a	n/a
328.492860	2	cue_social_low	n/a	16	-7	n/a	n/a	n/a
335.237030	2	cue_nonsocial	n/a	16	-7	n/a	n/a	n/a
335.237030	2	cue_nonsocial_low	n/a	16	-7	n/a	n/a	n/a
342.996100	2	cue_social	n/a	32	9	n/a	n/a	n/a
342.996100	2	cue_social_high	n/a	32	9	n/a	n/a	n/a
349.830930	2	cue_social	n/a	32	9	n/a	n/a	n/a
349.830930	2	cue_social_high	n/a	32	9	n/a	n/a	n/a
357.493070	2	cue_social	n/a	16	-7	n/a	n/a	n/a
357.493070	2	cue_social_low	n/a	16	-7	n/a	n/a	n/a
364.187320	2	cue_nonsocial	n/a	16	-7	n/a	n/a	n/a
364.187320	2	cue_nonsocial_low	n/a	16	-7	n/a	n/a	n/a
371.019900	2	cue_nonsocial	n/a	16	-7	n/a	n/a	n/a
371.019900	2	cue_nonsocial_low	n/a	16	-7	n/a	n/a	n/a
6.525310	1.016727	dec_nonsocial_choice	1.016727	16.000000	n/a	1	-1.679688e-01	-1.679688e-01
6.525310	1.016727	dec_choice	1.016727	16.000000	n/a	1	-1.692708e-01	-1.692708e-01
6.525310	1.016727	dec_nonsocial_accept	1.016727	16.000000	n/a	1	-2.837500e-01	-2.837500e-01
6.525310	1.016727	dec_accept	1.016727	16.000000	n/a	1	-2.884615e-01	-2.884615e-01
6.525310	1.016727	dec_nonsocial_accept_low	1.016727	16.000000	n/a	1	-2.786458e-01	-2.786458e-01
15.792640	1.016085	dec_nonsocial_choice	1.016085	16.000000	n/a	4	1.953125e-02	1.953125e-02
15.792640	1.016085	dec_choice	1.016085	16.000000	n/a	4	1.822917e-02	1.822917e-02
15.792640	1.016085	dec_nonsocial_accept	1.016085	16.000000	n/a	4	-9.625000e-02	-9.625000e-02
15.792640	1.016085	dec_accept	1.016085	16.000000	n/a	4	-1.009615e-01	-1.009615e-01
15.792640	1.016085	dec_nonsocial_high	1.016085	16.000000	n/a	4	1.822917e-02	1.822917e-02
15.792640	1.016085	dec_nonsocial_accept_high	1.016085	16.000000	n/a	4	-1.009615e-01	-1.009615e-01
23.442589	1.566016	dec_nonsocial_choice	1.566016	16.000000	n/a	4	1.953125e-02	1.953125e-02
23.442589	1.566016	dec_choice	1.566016	16.000000	n/a	4	1.822917e-02	1.822917e-02
23.442589	1.566016	dec_nonsocial_accept	1.566016	16.000000	n/a	4	-9.625000e-02	-9.625000e-02
23.442589	1.566016	dec_accept	1.566016	16.000000	n/a	4	-1.009615e-01	-1.009615e-01
23.442589	1.566016	dec_nonsocial_accept_high	1.566016	16.000000	n/a	4	-9.114583e-02	-9.114583e-02
31.093578	1.414842	dec_nonsocial_choice	1.414842	32.000000	n/a	8	1.953125e-02	1.953125e-02
31.093578	1.414842	dec_choice	1.414842	32.000000	n/a	8	1.822917e-02	1.822917e-02
31.093578	1.414842	dec_nonsocial_accept	1.414842	32.000000	n/a	8	-9.625000e-02	-9.625000e-02
31.093578	1.414842	dec_accept	1.414842	32.000000	n/a	8	-1.009615e-01	-1.009615e-01
31.093578	1.414842	dec_nonsocial_high	1.414842	32.000000	n/a	8	1.822917e-02	1.822917e-02
31.093578	1.414842	dec_nonsocial_accept_high	1.414842	32.000000	n/a	8	-1.009615e-01	-1.009615e-01
37.925690	1.166359	dec_nonsocial_choice	1.166359	16.000000	n/a	0	0	-2.304688e-01
37.925690	1.166359	dec_choice	1.166359	16.000000	n/a	0	0	-2.317708e-01
37.925690	1.166359	dec_nonsocial_reject	1.166359	16.000000	n/a	0	0	2.038043e-02
37.925690	1.166359	dec_reject	1.166359	16.000000	n/a	0	0	3.409091e-02
37.925690	1.166359	dec_nonsocial_reject_low	1.166359	16.000000	n/a	2	7.812500e-03	-1.171875e-01
45.575394	1.266766	dec_nonsocial_choice	1.266766	32.000000	n/a	0	0	-2.304688e-01
45.575394	1.266766	dec_choice	1.266766	32.000000	n/a	0	0	-2.317708e-01
45.575394	1.266766	dec_nonsocial_reject	1.266766	32.000000	n/a	0	0	-1.086957e-02
45.575394	1.266766	dec_reject	1.266766	32.000000	n/a	0	0	2.840909e-03
45.575394	1.266766	dec_nonsocial_low	1.266766	32.000000	n/a	0	-2.317708e-01	-2.317708e-01
45.575394	1.266766	dec_nonsocial_reject_low	1.266766	32.000000	n/a	3	2.840909e-03	-9.090909e-02
54.843407	1.281994	dec_social_choice	1.281994	16.000000	n/a	0	0	-2.304688e-01
54.843407	1.281994	dec_choice	1.281994	16.000000	n/a	0	0	-2.291667e-01
54.843407	1.281994	dec_social_reject	1.281994	16.000000	n/a	0	0	2.038043e-02
54.843407	1.281994	dec_reject	1.281994	16.000000	n/a	0	0	7.812500e-03
54.843407	1.281994	dec_social_reject_low	1.281994	16.000000	n/a	2	-1.041667e-01	-2.291667e-01
61.675648	1.283463	dec_nonsocial_choice	1.283463	16.000000	n/a	4	1.953125e-02	1.953125e-02
61.675648	1.283463	dec_choice	1.283463	16.000000	n/a	4	1.822917e-02	1.822917e-02
61.675648	1.283463	dec_nonsocial_accept	1.283463	16.000000	n/a	4	-9.625000e-02	-9.625000e-02
61.675648	1.283463	dec_accept	1.283463	16.000000	n/a	4	-1.009615e-01	-1.009615e-01
61.675648	1.283463	dec_nonsocial_accept_high	1.283463	16.000000	n/a	4	-9.114583e-02	-9.114583e-02
68.509310	1.183845	dec_social_choice	1.183845	16.000000	n/a	4	1.953125e-02	1.953125e-02
68.509310	1.183845	dec_choice	1.183845	16.000000	n/a	4	2.083333e-02	2.083333e-02
68.509310	1.183845	dec_social_accept	1.183845	16.000000	n/a	4	-9.625000e-02	-9.625000e-02
68.509310	1.183845	dec_accept	1.183845	16.000000	n/a	4	-9.114583e-02	-9.114583e-02
68.509310	1.183845	dec_social_high	1.183845	16.000000	n/a	4	2.083333e-02	2.083333e-02
68.509310	1.183845	dec_social_accept_high	1.183845	16.000000	n/a	4	2.083333e-02	2.083333e-02
76.160000	1.099120	dec_nonsocial_choice	1.099120	32.000000	n/a	16	2.695312e-01	2.695312e-01
76.160000	1.099120	dec_choice	1.099120	32.000000	n/a	16	2.682292e-01	2.682292e-01
76.160000	1.099120	dec_nonsocial_accept	1.099120	32.000000	n/a	16	1.537500e-01	1.537500e-01
76.160000	1.099120	dec_accept	1.099120	32.000000	n/a	16	1.490385e-01	1.490385e-01
76.160000	1.099120	dec_nonsocial_accept_high	1.099120	32.000000	n/a	16	1.588542e-01	1.588542e-01
83.009995	0.982643	dec_nonsocial_choice	0.982643	16.000000	n/a	4	1.953125e-02	1.953125e-02
83.009995	0.982643	dec_choice	0.982643	16.000000	n/a	4	1.822917e-02	1.822917e-02
83.009995	0.982643	dec_nonsocial_accept	0.982643	16.000000	n/a	4	-9.625000e-02	-9.625000e-02
83.009995	0.982643	dec_accept	0.982643	16.000000	n/a	4	-1.009615e-01	-1.009615e-01
83.009995	0.982643	dec_nonsocial_accept_high	0.982643	16.000000	n/a	4	-9.114583e-02	-9.114583e-02
89.842910	1.016533	dec_social_choice	1.016533	16.000000	n/a	0	0	-2.304688e-01
89.842910	1.016533	dec_choice	1.016533	16.000000	n/a	0	0	-2.291667e-01
89.842910	1.016533	dec_social_reject	1.016533	16.000000	n/a	0	0	-4.211957e-02
89.842910	1.016533	dec_reject	1.016533	16.000000	n/a	0	0	-5.468750e-02
89.842910	1.016533	dec_social_low	1.016533	16.000000	n/a	0	-2.291667e-01	-2.291667e-01
89.842910	1.016533	dec_social_reject_low	1.016533	16.000000	n/a	1	-1.666667e-01	-2.291667e-01
99.092780	1.599715	dec_nonsocial_choice	1.599715	32.000000	n/a	0	0	-2.304688e-01
99.092780	1.599715	dec_choice	1.599715	32.000000	n/a	0	0	-2.317708e-01
99.092780	1.599715	dec_nonsocial_reject	1.599715	32.000000	n/a	0	0	-1.086957e-02
99.092780	1.599715	dec_reject	1.599715	32.000000	n/a	0	0	2.840909e-03
99.092780	1.599715	dec_nonsocial_reject_low	1.599715	32.000000	n/a	3	-2.343750e-02	-1.171875e-01
109.959890	1.215343	dec_nonsocial_choice	1.215343	16.000000	n/a	0	0	-2.304688e-01
109.959890	1.215343	dec_choice	1.215343	16.000000	n/a	0	0	-2.317708e-01
109.959890	1.215343	dec_nonsocial_reject	1.215343	16.000000	n/a	0	0	-4.211957e-02
109.959890	1.215343	dec_reject	1.215343	16.000000	n/a	0	0	-2.840909e-02
109.959890	1.215343	dec_nonsocial_low	1.215343	16.000000	n/a	0	-2.317708e-01	-2.317708e-01
109.959890	1.215343	dec_nonsocial_reject_low	1.215343	16.000000	n/a	1	-2.840909e-02	-9.090909e-02
116.792090	1.166214	dec_social_choice	1.166214	32.000000	n/a	0	0	-2.304688e-01
116.792090	1.166214	dec_choice	1.166214	32.000000	n/a	0	0	-2.291667e-01
116.792090	1.166214	dec_social_reject	1.166214	32.000000	n/a	0	0	-1.086957e-02
116.792090	1.166214	dec_reject	1.166214	32.000000	n/a	0	0	-2.343750e-02
116.792090	1.166214	dec_social_low	1.166214	32.000000	n/a	0	-2.291667e-01	-2.291667e-01
116.792090	1.166214	dec_social_reject_low	1.166214	32.000000	n/a	3	-1.354167e-01	-2.291667e-01
123.625440	1.516505	dec_social_choice	1.516505	32.000000	n/a	0	0	-2.304688e-01
123.625440	1.516505	dec_choice	1.516505	32.000000	n/a	0	0	-2.291667e-01
123.625440	1.516505	dec_social_reject	1.516505	32.000000	n/a	0	0	-4.211957e-02
123.625440	1.516505	dec_reject	1.516505	32.000000	n/a	0	0	-5.468750e-02
123.625440	1.516505	dec_social_low	1.516505	32.000000	n/a	0	-2.291667e-01	-2.291667e-01
123.625440	1.516505	dec_social_reject_low	1.516505	32.000000	n/a	2	-1.666667e-01	-2.291667e-01
131.276000	1.215788	dec_social_choice	1.215788	32.000000	n/a	0	0	-2.304688e-01
131.276000	1.215788	dec_choice	1.215788	32.000000	n/a	0	0	-2.291667e-01
131.276000	1.215788	dec_social_reject	1.215788	32.000000	n/a	0	0	3.953804e-01
131.276000	1.215788	dec_reject	1.215788	32.000000	n/a	0	0	3.828125e-01
131.276000	1.215788	dec_social_low	1.215788	32.000000	n/a	0	-2.291667e-01	-2.291667e-01
131.276000	1.215788	dec_social_reject_low	1.215788	32.000000	n/a	16	2.708333e-01	-2.291667e-01
140.525670	0.966677	dec_nonsocial_choice	0.966677	16.000000	n/a	0	0	-2.304688e-01
140.525670	0.966677	dec_choice	0.966677	16.000000	n/a	0	0	-2.317708e-01
140.525670	0.966677	dec_nonsocial_reject	0.966677	16.000000	n/a	0	0	2.038043e-02
140.525670	0.966677	dec_reject	0.966677	16.000000	n/a	0	0	3.409091e-02
140.525670	0.966677	dec_nonsocial_low	0.966677	16.000000	n/a	0	-2.317708e-01	-2.317708e-01
140.525670	0.966677	dec_nonsocial_reject_low	0.966677	16.000000	n/a	2	3.409091e-02	-9.090909e-02
148.175140	0.983607	dec_social_choice	0.983607	16.000000	n/a	8	2.695312e-01	2.695312e-01
148.175140	0.983607	dec_choice	0.983607	16.000000	n/a	8	2.708333e-01	2.708333e-01
148.175140	0.983607	dec_social_accept	0.983607	16.000000	n/a	8	1.537500e-01	1.537500e-01
148.175140	0.983607	dec_accept	0.983607	16.000000	n/a	8	1.588542e-01	1.588542e-01
148.175140	0.983607	dec_social_accept_high	0.983607	16.000000	n/a	8	2.708333e-01	2.708333e-01
155.008770	1.233704	dec_social_choice	1.233704	16.000000	n/a	0	0	-2.304688e-01
155.008770	1.233704	dec_choice	1.233704	16.000000	n/a	0	0	-2.291667e-01
155.008770	1.233704	dec_social_reject	1.233704	16.000000	n/a	0	0	-4.211957e-02
155.008770	1.233704	dec_reject	1.233704	16.000000	n/a	0	0	-5.468750e-02
155.008770	1.233704	dec_social_low	1.233704	16.000000	n/a	0	-2.291667e-01	-2.291667e-01
155.008770	1.233704	dec_social_reject_low	1.233704	16.000000	n/a	1	-1.666667e-01	-2.291667e-01
162.659000	1.483617	dec_nonsocial_choice	1.483617	32.000000	n/a	16	2.695312e-01	2.695312e-01
162.659000	1.483617	dec_choice	1.483617	32.000000	n/a	16	2.682292e-01	2.682292e-01
162.659000	1.483617	dec_nonsocial_accept	1.483617	32.000000	n/a	16	1.537500e-01	1.537500e-01
162.659000	1.483617	dec_accept	1.483617	32.000000	n/a	16	1.490385e-01	1.490385e-01
162.659000	1.483617	dec_nonsocial_accept_high	1.483617	32.000000	n/a	16	1.588542e-01	1.588542e-01
171.909260	0.749510	dec_nonsocial_choice	0.749510	32.000000	n/a	0	0	-2.304688e-01
171.909260	0.749510	dec_choice	0.749510	32.000000	n/a	0	0	-2.317708e-01
171.909260	0.749510	dec_nonsocial_reject	0.749510	32.000000	n/a	0	0	-4.211957e-02
171.909260	0.749510	dec_reject	0.749510	32.000000	n/a	0	0	-2.840909e-02
171.909260	0.749510	dec_nonsocial_low	0.749510	32.000000	n/a	0	-2.317708e-01	-2.317708e-01
171.909260	0.749510	dec_nonsocial_reject_low	0.749510	32.000000	n/a	2	-2.840909e-02	-9.090909e-02
178.741940	0.966665	dec_social_choice	0.966665	16.000000	n/a	8	2.695312e-01	2.695312e-01
178.741940	0.966665	dec_choice	0.966665	16.000000	n/a	8	2.708333e-01	2.708333e-01
178.741940	0.966665	dec_social_accept	0.966665	16.000000	n/a	8	1.537500e-01	1.537500e-01
178.741940	0.966665	dec_accept	0.966665	16.000000	n/a	8	1.588542e-01	1.588542e-01
178.741940	0.966665	dec_social_accept_high	0.966665	16.000000	n/a	8	2.708333e-01	2.708333e-01
186.392030	0.800313	dec_nonsocial_choice	0.800313	32.000000	n/a	0	0	-2.304688e-01
186.392030	0.800313	dec_choice	0.800313	32.000000	n/a	0	0	-2.317708e-01
186.392030	0.800313	dec_nonsocial_reject	0.800313	32.000000	n/a	0	0	-4.211957e-02
186.392030	0.800313	dec_reject	0.800313	32.000000	n/a	0	0	-2.840909e-02
186.392030	0.800313	dec_nonsocial_low	0.800313	32.000000	n/a	0	-2.317708e-01	-2.317708e-01
186.392030	0.800313	dec_nonsocial_reject_low	0.800313	32.000000	n/a	2	-2.840909e-02	-9.090909e-02
193.226990	1.232010	dec_nonsocial_choice	1.232010	32.000000	n/a	16	2.695312e-01	2.695312e-01
193.226990	1.232010	dec_choice	1.232010	32.000000	n/a	16	2.682292e-01	2.682292e-01
193.226990	1.232010	dec_nonsocial_accept	1.232010	32.000000	n/a	16	1.537500e-01	1.537500e-01
193.226990	1.232010	dec_accept	1.232010	32.000000	n/a	16	1.490385e-01	1.490385e-01
193.226990	1.232010	dec_nonsocial_high	1.232010	32.000000	n/a	16	2.682292e-01	2.682292e-01
193.226990	1.232010	dec_nonsocial_accept_high	1.232010	32.000000	n/a	16	1.490385e-01	1.490385e-01
204.092070	1.633743	dec_social_choice	1.633743	32.000000	n/a	8	1.953125e-02	1.953125e-02
204.092070	1.633743	dec_choice	1.633743	32.000000	n/a	8	2.083333e-02	2.083333e-02
204.092070	1.633743	dec_social_accept	1.633743	32.000000	n/a	8	-9.625000e-02	-9.625000e-02
204.092070	1.633743	dec_accept	1.633743	32.000000	n/a	8	-9.114583e-02	-9.114583e-02
204.092070	1.633743	dec_social_high	1.633743	32.000000	n/a	8	2.083333e-02	2.083333e-02
204.092070	1.633743	dec_social_accept_high	1.633743	32.000000	n/a	8	2.083333e-02	2.083333e-02
210.925520	1.384146	dec_social_choice	1.384146	32.000000	n/a	8	1.953125e-02	1.953125e-02
210.925520	1.384146	dec_choice	1.384146	32.000000	n/a	8	2.083333e-02	2.083333e-02
210.925520	1.384146	dec_social_accept	1.384146	32.000000	n/a	8	-9.625000e-02	-9.625000e-02
210.925520	1.384146	dec_accept	1.384146	32.000000	n/a	8	-9.114583e-02	-9.114583e-02
210.925520	1.384146	dec_social_accept_high	1.384146	32.000000	n/a	8	2.083333e-02	2.083333e-02
220.176360	0.899279	dec_social_choice	0.899279	32.000000	n/a	3	-1.367188e-01	-1.367188e-01
220.176360	0.899279	dec_choice	0.899279	32.000000	n/a	3	-1.354167e-01	-1.354167e-01
220.176360	0.899279	dec_social_accept	0.899279	32.000000	n/a	3	-2.525000e-01	-2.525000e-01
220.176360	0.899279	dec_accept	0.899279	32.000000	n/a	3	-2.473958e-01	-2.473958e-01
220.176360	0.899279	dec_social_low	0.899279	32.000000	n/a	3	-1.354167e-01	-1.354167e-01
220.176360	0.899279	dec_social_accept_low	0.899279	32.000000	n/a	3	-1.354167e-01	-1.354167e-01
227.008600	2.383865	dec_social_choice	2.383865	32.000000	n/a	8	1.953125e-02	1.953125e-02
227.008600	2.383865	dec_choice	2.383865	32.000000	n/a	8	2.083333e-02	2.083333e-02
227.008600	2.383865	dec_social_accept	2.383865	32.000000	n/a	8	-9.625000e-02	-9.625000e-02
227.008600	2.383865	dec_accept	2.383865	32.000000	n/a	8	-9.114583e-02	-9.114583e-02
227.008600	2.383865	dec_social_accept_high	2.383865	32.000000	n/a	8	2.083333e-02	2.083333e-02
233.842000	1.600112	dec_nonsocial_choice	1.600112	16.000000	n/a	0	0	-2.304688e-01
233.842000	1.600112	dec_choice	1.600112	16.000000	n/a	0	0	-2.317708e-01
233.842000	1.600112	dec_nonsocial_reject	1.600112	16.000000	n/a	0	0	-4.211957e-02
233.842000	1.600112	dec_reject	1.600112	16.000000	n/a	0	0	-2.840909e-02
233.842000	1.600112	dec_nonsocial_low	1.600112	16.000000	n/a	0	-2.317708e-01	-2.317708e-01
233.842000	1.600112	dec_nonsocial_reject_low	1.600112	16.000000	n/a	1	-2.840909e-02	-9.090909e-02
240.675640	1.033355	dec_nonsocial_choice	1.033355	32.000000	n/a	0	0	-2.304688e-01
240.675640	1.033355	dec_choice	1.033355	32.000000	n/a	0	0	-2.317708e-01
240.675640	1.033355	dec_nonsocial_reject	1.033355	32.000000	n/a	0	0	-4.211957e-02
240.675640	1.033355	dec_reject	1.033355	32.000000	n/a	0	0	-2.840909e-02
240.675640	1.033355	dec_nonsocial_low	1.033355	32.000000	n/a	0	-2.317708e-01	-2.317708e-01
240.675640	1.033355	dec_nonsocial_reject_low	1.033355	32.000000	n/a	2	-2.840909e-02	-9.090909e-02
247.509120	0.699758	dec_social_choice	0.699758	32.000000	n/a	8	1.953125e-02	1.953125e-02
247.509120	0.699758	dec_choice	0.699758	32.000000	n/a	8	2.083333e-02	2.083333e-02
247.509120	0.699758	dec_social_accept	0.699758	32.000000	n/a	8	-9.625000e-02	-9.625000e-02
247.509120	0.699758	dec_accept	0.699758	32.000000	n/a	8	-9.114583e-02	-9.114583e-02
247.509120	0.699758	dec_social_accept_high	0.699758	32.000000	n/a	8	2.083333e-02	2.083333e-02
259.991760	1.233825	dec_social_choice	1.233825	32.000000	n/a	0	0	-2.304688e-01
259.991760	1.233825	dec_choice	1.233825	32.000000	n/a	0	0	-2.291667e-01
259.991760	1.233825	dec_social_reject	1.233825	32.000000	n/a	0	0	-4.211957e-02
259.991760	1.233825	dec_reject	1.233825	32.000000	n/a	0	0	-5.468750e-02
259.991760	1.233825	dec_social_low	1.233825	32.000000	n/a	0	-2.291667e-01	-2.291667e-01
259.991760	1.233825	dec_social_reject_low	1.233825	32.000000	n/a	2	-1.666667e-01	-2.291667e-01
266.825100	1.050178	dec_social_choice	1.050178	16.000000	n/a	4	1.953125e-02	1.953125e-02
266.825100	1.050178	dec_choice	1.050178	16.000000	n/a	4	2.083333e-02	2.083333e-02
266.825100	1.050178	dec_social_accept	1.050178	16.000000	n/a	4	-9.625000e-02	-9.625000e-02
266.825100	1.050178	dec_accept	1.050178	16.000000	n/a	4	-9.114583e-02	-9.114583e-02
266.825100	1.050178	dec_social_high	1.050178	16.000000	n/a	4	2.083333e-02	2.083333e-02
266.825100	1.050178	dec_social_accept_high	1.050178	16.000000	n/a	4	2.083333e-02	2.083333e-02
273.660030	1.848732	dec_social_choice	1.848732	16.000000	n/a	8	2.695312e-01	2.695312e-01
273.660030	1.848732	dec_choice	1.848732	16.000000	n/a	8	2.708333e-01	2.708333e-01
273.660030	1.848732	dec_social_accept	1.848732	16.000000	n/a	8	1.537500e-01	1.537500e-01
273.660030	1.848732	dec_accept	1.848732	16.000000	n/a	8	1.588542e-01	1.588542e-01
273.660030	1.848732	dec_social_accept_high	1.848732	16.000000	n/a	8	2.708333e-01	2.708333e-01
281.308140	1.166914	dec_nonsocial_choice	1.166914	32.000000	n/a	8	1.953125e-02	1.953125e-02
281.308140	1.166914	dec_choice	1.166914	32.000000	n/a	8	1.822917e-02	1.822917e-02
281.308140	1.166914	dec_nonsocial_accept	1.166914	32.000000	n/a	8	-9.625000e-02	-9.625000e-02
281.308140	1.166914	dec_accept	1.166914	32.000000	n/a	8	-1.009615e-01	-1.009615e-01
281.308140	1.166914	dec_nonsocial_accept_high	1.166914	32.000000	n/a	8	-9.114583e-02	-9.114583e-02
288.958830	1.000017	dec_nonsocial_choice	1.000017	16.000000	n/a	8	2.695312e-01	2.695312e-01
288.958830	1.000017	dec_choice	1.000017	16.000000	n/a	8	2.682292e-01	2.682292e-01
288.958830	1.000017	dec_nonsocial_accept	1.000017	16.000000	n/a	8	1.537500e-01	1.537500e-01
288.958830	1.000017	dec_accept	1.000017	16.000000	n/a	8	1.490385e-01	1.490385e-01
288.958830	1.000017	dec_nonsocial_accept_high	1.000017	16.000000	n/a	8	1.588542e-01	1.588542e-01
296.609300	1.815681	dec_nonsocial_choice	1.815681	16.000000	n/a	0	0	-2.304688e-01
296.609300	1.815681	dec_choice	1.815681	16.000000	n/a	0	0	-2.317708e-01
296.609300	1.815681	dec_nonsocial_reject	1.815681	16.000000	n/a	0	0	2.038043e-02
296.609300	1.815681	dec_reject	1.815681	16.000000	n/a	0	0	3.409091e-02
296.609300	1.815681	dec_nonsocial_reject_low	1.815681	16.000000	n/a	2	7.812500e-03	-1.171875e-01
303.443020	1.549071	dec_social_choice	1.549071	16.000000	n/a	0	0	-2.304688e-01
303.443020	1.549071	dec_choice	1.549071	16.000000	n/a	0	0	-2.291667e-01
303.443020	1.549071	dec_social_reject	1.549071	16.000000	n/a	0	0	-4.211957e-02
303.443020	1.549071	dec_reject	1.549071	16.000000	n/a	0	0	-5.468750e-02
303.443020	1.549071	dec_social_low	1.549071	16.000000	n/a	0	-2.291667e-01	-2.291667e-01
303.443020	1.549071	dec_social_reject_low	1.549071	16.000000	n/a	1	-1.666667e-01	-2.291667e-01
310.275480	1.449329	dec_social_choice	1.449329	16.000000	n/a	0	0	-2.304688e-01
310.275480	1.449329	dec_choice	1.449329	16.000000	n/a	0	0	-2.291667e-01
310.275480	1.449329	dec_social_reject	1.449329	16.000000	n/a	0	0	-4.211957e-02
310.275480	1.449329	dec_reject	1.449329	16.000000	n/a	0	0	-5.468750e-02
310.275480	1.449329	dec_social_reject_low	1.449329	16.000000	n/a	1	-1.666667e-01	-2.291667e-01
321.142060	1.132924	dec_social_choice	1.132924	16.000000	n/a	8	2.695312e-01	2.695312e-01
321.142060	1.132924	dec_choice	1.132924	16.000000	n/a	8	2.708333e-01	2.708333e-01
321.142060	1.132924	dec_social_accept	1.132924	16.000000	n/a	8	1.537500e-01	1.537500e-01
321.142060	1.132924	dec_accept	1.132924	16.000000	n/a	8	1.588542e-01	1.588542e-01
321.142060	1.132924	dec_social_accept_high	1.132924	16.000000	n/a	8	2.708333e-01	2.708333e-01
330.408170	1.834067	dec_social_choice	1.834067	16.000000	n/a	0	0	-2.304688e-01
330.408170	1.834067	dec_choice	1.834067	16.000000	n/a	0	0	-2.291667e-01
330.408170	1.834067	dec_social_reject	1.834067	16.000000	n/a	0	0	2.038043e-02
330.408170	1.834067	dec_reject	1.834067	16.000000	n/a	0	0	7.812500e-03
330.408170	1.834067	dec_social_low	1.834067	16.000000	n/a	0	-2.291667e-01	-2.291667e-01
330.408170	1.834067	dec_social_reject_low	1.834067	16.000000	n/a	2	-1.041667e-01	-2.291667e-01
337.242070	1.299491	dec_nonsocial_choice	1.299491	16.000000	n/a	8	2.695312e-01	2.695312e-01
337.242070	1.299491	dec_choice	1.299491	16.000000	n/a	8	2.682292e-01	2.682292e-01
337.242070	1.299491	dec_nonsocial_accept	1.299491	16.000000	n/a	8	1.537500e-01	1.537500e-01
337.242070	1.299491	dec_accept	1.299491	16.000000	n/a	8	1.490385e-01	1.490385e-01
337.242070	1.299491	dec_nonsocial_high	1.299491	16.000000	n/a	8	2.682292e-01	2.682292e-01
337.242070	1.299491	dec_nonsocial_accept_high	1.299491	16.000000	n/a	8	1.490385e-01	1.490385e-01
344.892000	1.066402	dec_social_choice	1.066402	32.000000	n/a	0	0	-2.304688e-01
344.892000	1.066402	dec_choice	1.066402	32.000000	n/a	0	0	-2.291667e-01
344.892000	1.066402	dec_social_reject	1.066402	32.000000	n/a	0	0	-1.086957e-02
344.892000	1.066402	dec_reject	1.066402	32.000000	n/a	0	0	-2.343750e-02
344.892000	1.066402	dec_social_reject_low	1.066402	32.000000	n/a	3	-1.354167e-01	-2.291667e-01
351.725200	1.800378	dec_social_choice	1.800378	32.000000	n/a	0	0	-2.304688e-01
351.725200	1.800378	dec_choice	1.800378	32.000000	n/a	0	0	-2.291667e-01
351.725200	1.800378	dec_social_reject	1.800378	32.000000	n/a	0	0	-1.086957e-02
351.725200	1.800378	dec_reject	1.800378	32.000000	n/a	0	0	-2.343750e-02
351.725200	1.800378	dec_social_reject_low	1.800378	32.000000	n/a	3	-1.354167e-01	-2.291667e-01
359.357900	1.784112	dec_social_choice	1.784112	16.000000	n/a	8	2.695312e-01	2.695312e-01
359.357900	1.784112	dec_choice	1.784112	16.000000	n/a	8	2.708333e-01	2.708333e-01
359.357900	1.784112	dec_social_accept	1.784112	16.000000	n/a	8	1.537500e-01	1.537500e-01
359.357900	1.784112	dec_accept	1.784112	16.000000	n/a	8	1.588542e-01	1.588542e-01
359.357900	1.784112	dec_social_accept_high	1.784112	16.000000	n/a	8	2.708333e-01	2.708333e-01
366.192800	1.199033	dec_nonsocial_choice	1.199033	16.000000	n/a	0	0	-2.304688e-01
366.192800	1.199033	dec_choice	1.199033	16.000000	n/a	0	0	-2.317708e-01
366.192800	1.199033	dec_nonsocial_reject	1.199033	16.000000	n/a	0	0	2.038043e-02
366.192800	1.199033	dec_reject	1.199033	16.000000	n/a	0	0	3.409091e-02
366.192800	1.199033	dec_nonsocial_reject_low	1.199033	16.000000	n/a	2	7.812500e-03	-1.171875e-01
373.025330	0.916117	dec_nonsocial_choice	0.916117	16.000000	n/a	8	2.695312e-01	2.695312e-01
373.025330	0.916117	dec_choice	0.916117	16.000000	n/a	8	2.682292e-01	2.682292e-01
373.025330	0.916117	dec_nonsocial_accept	0.916117	16.000000	n/a	8	1.537500e-01	1.537500e-01
373.025330	0.916117	dec_accept	0.916117	16.000000	n/a	8	1.490385e-01	1.490385e-01
373.025330	0.916117	dec_nonsocial_high	0.916117	16.000000	n/a	8	2.682292e-01	2.682292e-01
373.025330	0.916117	dec_nonsocial_accept_high	0.916117	16.000000	n/a	8	1.490385e-01	1.490385e-01
