onset	duration	trial_type	response_time	Endowment	Endowment_pmod	Decision	Decision_pmod	Offer_pmod
4.504304	2	cue_nonsocial	n/a	16	-7	n/a	n/a	n/a
4.504304	2	cue_nonsocial_low	n/a	16	-7	n/a	n/a	n/a
15.387668	2	cue_nonsocial	n/a	32	9	n/a	n/a	n/a
15.387668	2	cue_nonsocial_high	n/a	32	9	n/a	n/a	n/a
22.220486	2	cue_nonsocial	n/a	32	9	n/a	n/a	n/a
22.220486	2	cue_nonsocial_high	n/a	32	9	n/a	n/a	n/a
29.175146	2	cue_social	n/a	32	9	n/a	n/a	n/a
29.175146	2	cue_social_high	n/a	32	9	n/a	n/a	n/a
39.920700	2	cue_nonsocial	n/a	32	9	n/a	n/a	n/a
39.920700	2	cue_nonsocial_high	n/a	32	9	n/a	n/a	n/a
47.598760	2	cue_social	n/a	16	-7	n/a	n/a	n/a
47.598760	2	cue_social_low	n/a	16	-7	n/a	n/a	n/a
56.820694	2	cue_nonsocial	n/a	32	9	n/a	n/a	n/a
56.820694	2	cue_nonsocial_high	n/a	32	9	n/a	n/a	n/a
69.303830	2	cue_nonsocial	n/a	32	9	n/a	n/a	n/a
69.303830	2	cue_nonsocial_high	n/a	32	9	n/a	n/a	n/a
76.951220	2	cue_social	n/a	32	9	n/a	n/a	n/a
76.951220	2	cue_social_high	n/a	32	9	n/a	n/a	n/a
86.224045	2	cue_social	n/a	16	-7	n/a	n/a	n/a
86.224045	2	cue_social_low	n/a	16	-7	n/a	n/a	n/a
93.051740	2	cue_social	n/a	16	-7	n/a	n/a	n/a
93.051740	2	cue_social_low	n/a	16	-7	n/a	n/a	n/a
100.701590	2	cue_social	n/a	16	-7	n/a	n/a	n/a
100.701590	2	cue_social_low	n/a	16	-7	n/a	n/a	n/a
107.533325	2	cue_social	n/a	16	-7	n/a	n/a	n/a
107.533325	2	cue_social_low	n/a	16	-7	n/a	n/a	n/a
115.169780	2	cue_nonsocial	n/a	32	9	n/a	n/a	n/a
115.169780	2	cue_nonsocial_high	n/a	32	9	n/a	n/a	n/a
124.420830	2	cue_nonsocial	n/a	16	-7	n/a	n/a	n/a
124.420830	2	cue_nonsocial_low	n/a	16	-7	n/a	n/a	n/a
131.253040	2	cue_nonsocial	n/a	16	-7	n/a	n/a	n/a
131.253040	2	cue_nonsocial_low	n/a	16	-7	n/a	n/a	n/a
138.099320	2	cue_social	n/a	16	-7	n/a	n/a	n/a
138.099320	2	cue_social_low	n/a	16	-7	n/a	n/a	n/a
145.736400	2	cue_nonsocial	n/a	16	-7	n/a	n/a	n/a
145.736400	2	cue_nonsocial_low	n/a	16	-7	n/a	n/a	n/a
152.570530	2	cue_nonsocial	n/a	32	9	n/a	n/a	n/a
152.570530	2	cue_nonsocial_high	n/a	32	9	n/a	n/a	n/a
159.404330	2	cue_nonsocial	n/a	32	9	n/a	n/a	n/a
159.404330	2	cue_nonsocial_high	n/a	32	9	n/a	n/a	n/a
167.053380	2	cue_social	n/a	16	-7	n/a	n/a	n/a
167.053380	2	cue_social_low	n/a	16	-7	n/a	n/a	n/a
173.887650	2	cue_nonsocial	n/a	16	-7	n/a	n/a	n/a
173.887650	2	cue_nonsocial_low	n/a	16	-7	n/a	n/a	n/a
181.537730	2	cue_nonsocial	n/a	16	-7	n/a	n/a	n/a
181.537730	2	cue_nonsocial_low	n/a	16	-7	n/a	n/a	n/a
189.205100	2	cue_social	n/a	16	-7	n/a	n/a	n/a
189.205100	2	cue_social_low	n/a	16	-7	n/a	n/a	n/a
196.976640	2	cue_social	n/a	16	-7	n/a	n/a	n/a
196.976640	2	cue_social_low	n/a	16	-7	n/a	n/a	n/a
203.695250	2	cue_social	n/a	16	-7	n/a	n/a	n/a
203.695250	2	cue_social_low	n/a	16	-7	n/a	n/a	n/a
212.919920	2	cue_nonsocial	n/a	16	-7	n/a	n/a	n/a
212.919920	2	cue_nonsocial_low	n/a	16	-7	n/a	n/a	n/a
219.754360	2	cue_social	n/a	32	9	n/a	n/a	n/a
219.754360	2	cue_social_high	n/a	32	9	n/a	n/a	n/a
226.711530	2	cue_social	n/a	32	9	n/a	n/a	n/a
226.711530	2	cue_social_high	n/a	32	9	n/a	n/a	n/a
235.874450	2	cue_social	n/a	32	9	n/a	n/a	n/a
235.874450	2	cue_social_high	n/a	32	9	n/a	n/a	n/a
242.795870	2	cue_social	n/a	32	9	n/a	n/a	n/a
242.795870	2	cue_social_high	n/a	32	9	n/a	n/a	n/a
249.627780	2	cue_social	n/a	32	9	n/a	n/a	n/a
249.627780	2	cue_social_high	n/a	32	9	n/a	n/a	n/a
256.351600	2	cue_social	n/a	16	-7	n/a	n/a	n/a
256.351600	2	cue_social_low	n/a	16	-7	n/a	n/a	n/a
263.293580	2	cue_social	n/a	16	-7	n/a	n/a	n/a
263.293580	2	cue_social_low	n/a	16	-7	n/a	n/a	n/a
270.032230	2	cue_social	n/a	16	-7	n/a	n/a	n/a
270.032230	2	cue_social_low	n/a	16	-7	n/a	n/a	n/a
277.643370	2	cue_social	n/a	16	-7	n/a	n/a	n/a
277.643370	2	cue_social_low	n/a	16	-7	n/a	n/a	n/a
284.470500	2	cue_nonsocial	n/a	16	-7	n/a	n/a	n/a
284.470500	2	cue_nonsocial_low	n/a	16	-7	n/a	n/a	n/a
291.394500	2	cue_social	n/a	32	9	n/a	n/a	n/a
291.394500	2	cue_social_high	n/a	32	9	n/a	n/a	n/a
298.953250	2	cue_nonsocial	n/a	16	-7	n/a	n/a	n/a
298.953250	2	cue_nonsocial_low	n/a	16	-7	n/a	n/a	n/a
305.878800	2	cue_social	n/a	32	9	n/a	n/a	n/a
305.878800	2	cue_social_high	n/a	32	9	n/a	n/a	n/a
312.619140	2	cue_nonsocial	n/a	32	9	n/a	n/a	n/a
312.619140	2	cue_nonsocial_high	n/a	32	9	n/a	n/a	n/a
320.269470	2	cue_nonsocial	n/a	16	-7	n/a	n/a	n/a
320.269470	2	cue_nonsocial_low	n/a	16	-7	n/a	n/a	n/a
327.919680	2	cue_nonsocial	n/a	16	-7	n/a	n/a	n/a
327.919680	2	cue_nonsocial_low	n/a	16	-7	n/a	n/a	n/a
337.169600	2	cue_nonsocial	n/a	32	9	n/a	n/a	n/a
337.169600	2	cue_nonsocial_high	n/a	32	9	n/a	n/a	n/a
348.036620	2	cue_nonsocial	n/a	16	-7	n/a	n/a	n/a
348.036620	2	cue_nonsocial_low	n/a	16	-7	n/a	n/a	n/a
354.975160	2	cue_social	n/a	32	9	n/a	n/a	n/a
354.975160	2	cue_social_high	n/a	32	9	n/a	n/a	n/a
364.120420	2	cue_nonsocial	n/a	32	9	n/a	n/a	n/a
364.120420	2	cue_nonsocial_high	n/a	32	9	n/a	n/a	n/a
370.952550	2	cue_nonsocial	n/a	16	-7	n/a	n/a	n/a
370.952550	2	cue_nonsocial_low	n/a	16	-7	n/a	n/a	n/a
6.508945	3.766946	missed_trial	3.766946	16.000000	n/a	n/a	n/a	n/a
17.391344	1.750708	dec_nonsocial_choice	1.750708	32.000000	n/a	8	1.529255e-02	1.529255e-02
17.391344	1.750708	dec_choice	1.750708	32.000000	n/a	8	1.358696e-02	1.358696e-02
17.391344	1.750708	dec_nonsocial_accept	1.750708	32.000000	n/a	8	-7.650862e-02	-7.650862e-02
17.391344	1.750708	dec_accept	1.750708	32.000000	n/a	8	-1.033654e-01	-1.033654e-01
17.391344	1.750708	dec_nonsocial_high	1.750708	32.000000	n/a	8	1.358696e-02	1.358696e-02
17.391344	1.750708	dec_nonsocial_accept_high	1.750708	32.000000	n/a	8	-1.033654e-01	-1.033654e-01
24.225826	1.382327	dec_nonsocial_choice	1.382327	32.000000	n/a	0	0	-2.347074e-01
24.225826	1.382327	dec_choice	1.382327	32.000000	n/a	0	0	-2.364130e-01
24.225826	1.382327	dec_nonsocial_reject	1.382327	32.000000	n/a	0	0	6.944444e-03
24.225826	1.382327	dec_reject	1.382327	32.000000	n/a	0	0	9.375000e-03
24.225826	1.382327	dec_nonsocial_reject_low	1.382327	32.000000	n/a	3	3.906250e-03	-8.984375e-02
31.058435	2.150309	dec_social_choice	2.150309	32.000000	n/a	0	0	-2.347074e-01
31.058435	2.150309	dec_choice	2.150309	32.000000	n/a	0	0	-2.330729e-01
31.058435	2.150309	dec_social_reject	2.150309	32.000000	n/a	0	0	-2.430556e-02
31.058435	2.150309	dec_reject	2.150309	32.000000	n/a	0	0	-2.734375e-02
31.058435	2.150309	dec_social_reject_low	2.150309	32.000000	n/a	2	-1.705729e-01	-2.330729e-01
41.924847	1.016615	dec_nonsocial_choice	1.016615	32.000000	n/a	16	2.652926e-01	2.652926e-01
41.924847	1.016615	dec_choice	1.016615	32.000000	n/a	16	2.635870e-01	2.635870e-01
41.924847	1.016615	dec_nonsocial_accept	1.016615	32.000000	n/a	16	1.734914e-01	1.734914e-01
41.924847	1.016615	dec_accept	1.016615	32.000000	n/a	16	1.466346e-01	1.466346e-01
41.924847	1.016615	dec_nonsocial_high	1.016615	32.000000	n/a	16	2.635870e-01	2.635870e-01
41.924847	1.016615	dec_nonsocial_accept_high	1.016615	32.000000	n/a	16	1.466346e-01	1.466346e-01
49.575092	1.900335	dec_social_choice	1.900335	16.000000	n/a	2	-1.097074e-01	-1.097074e-01
49.575092	1.900335	dec_choice	1.900335	16.000000	n/a	2	-1.080729e-01	-1.080729e-01
49.575092	1.900335	dec_social_accept	1.900335	16.000000	n/a	2	-2.015086e-01	-2.015086e-01
49.575092	1.900335	dec_accept	1.900335	16.000000	n/a	2	-1.796875e-01	-1.796875e-01
49.575092	1.900335	dec_social_low	1.900335	16.000000	n/a	2	-1.080729e-01	-1.080729e-01
49.575092	1.900335	dec_social_accept_low	1.900335	16.000000	n/a	2	-1.080729e-01	-1.080729e-01
58.825020	1.150382	dec_nonsocial_choice	1.150382	32.000000	n/a	16	2.652926e-01	2.652926e-01
58.825020	1.150382	dec_choice	1.150382	32.000000	n/a	16	2.635870e-01	2.635870e-01
58.825020	1.150382	dec_nonsocial_accept	1.150382	32.000000	n/a	16	1.734914e-01	1.734914e-01
58.825020	1.150382	dec_accept	1.150382	32.000000	n/a	16	1.466346e-01	1.466346e-01
58.825020	1.150382	dec_nonsocial_accept_high	1.150382	32.000000	n/a	16	1.953125e-01	1.953125e-01
71.308980	1.032343	dec_nonsocial_choice	1.032343	32.000000	n/a	0	0	-2.347074e-01
71.308980	1.032343	dec_choice	1.032343	32.000000	n/a	0	0	-2.364130e-01
71.308980	1.032343	dec_nonsocial_reject	1.032343	32.000000	n/a	0	0	6.944444e-03
71.308980	1.032343	dec_reject	1.032343	32.000000	n/a	0	0	9.375000e-03
71.308980	1.032343	dec_nonsocial_low	1.032343	32.000000	n/a	0	-2.364130e-01	-2.364130e-01
71.308980	1.032343	dec_nonsocial_reject_low	1.032343	32.000000	n/a	3	9.375000e-03	-8.437500e-02
78.957970	1.500457	dec_social_choice	1.500457	32.000000	n/a	8	1.529255e-02	1.529255e-02
78.957970	1.500457	dec_choice	1.500457	32.000000	n/a	8	1.692708e-02	1.692708e-02
78.957970	1.500457	dec_social_accept	1.500457	32.000000	n/a	8	-7.650862e-02	-7.650862e-02
78.957970	1.500457	dec_accept	1.500457	32.000000	n/a	8	-5.468750e-02	-5.468750e-02
78.957970	1.500457	dec_social_high	1.500457	32.000000	n/a	8	1.692708e-02	1.692708e-02
78.957970	1.500457	dec_social_accept_high	1.500457	32.000000	n/a	8	1.692708e-02	1.692708e-02
88.208590	1.666496	dec_social_choice	1.666496	16.000000	n/a	0	0	-2.347074e-01
88.208590	1.666496	dec_choice	1.666496	16.000000	n/a	0	0	-2.330729e-01
88.208590	1.666496	dec_social_reject	1.666496	16.000000	n/a	0	0	3.819444e-02
88.208590	1.666496	dec_reject	1.666496	16.000000	n/a	0	0	3.515625e-02
88.208590	1.666496	dec_social_reject_low	1.666496	16.000000	n/a	2	-1.080729e-01	-2.330729e-01
95.041460	1.233737	dec_social_choice	1.233737	16.000000	n/a	4	1.529255e-02	1.529255e-02
95.041460	1.233737	dec_choice	1.233737	16.000000	n/a	4	1.692708e-02	1.692708e-02
95.041460	1.233737	dec_social_accept	1.233737	16.000000	n/a	4	-7.650862e-02	-7.650862e-02
95.041460	1.233737	dec_accept	1.233737	16.000000	n/a	4	-5.468750e-02	-5.468750e-02
95.041460	1.233737	dec_social_high	1.233737	16.000000	n/a	4	1.692708e-02	1.692708e-02
95.041460	1.233737	dec_social_accept_high	1.233737	16.000000	n/a	4	1.692708e-02	1.692708e-02
102.691990	1.383255	dec_social_choice	1.383255	16.000000	n/a	0	0	-2.347074e-01
102.691990	1.383255	dec_choice	1.383255	16.000000	n/a	0	0	-2.330729e-01
102.691990	1.383255	dec_social_reject	1.383255	16.000000	n/a	0	0	3.819444e-02
102.691990	1.383255	dec_reject	1.383255	16.000000	n/a	0	0	3.515625e-02
102.691990	1.383255	dec_social_low	1.383255	16.000000	n/a	0	-2.330729e-01	-2.330729e-01
102.691990	1.383255	dec_social_reject_low	1.383255	16.000000	n/a	2	-1.080729e-01	-2.330729e-01
109.526100	1.165283	dec_social_choice	1.165283	16.000000	n/a	8	2.652926e-01	2.652926e-01
109.526100	1.165283	dec_choice	1.165283	16.000000	n/a	8	2.669271e-01	2.669271e-01
109.526100	1.165283	dec_social_accept	1.165283	16.000000	n/a	8	1.734914e-01	1.734914e-01
109.526100	1.165283	dec_accept	1.165283	16.000000	n/a	8	1.953125e-01	1.953125e-01
109.526100	1.165283	dec_social_accept_high	1.165283	16.000000	n/a	8	2.669271e-01	2.669271e-01
117.175490	1.165944	dec_nonsocial_choice	1.165944	32.000000	n/a	0	0	-2.347074e-01
117.175490	1.165944	dec_choice	1.165944	32.000000	n/a	0	0	-2.364130e-01
117.175490	1.165944	dec_nonsocial_reject	1.165944	32.000000	n/a	0	0	-2.430556e-02
117.175490	1.165944	dec_reject	1.165944	32.000000	n/a	0	0	-2.187500e-02
117.175490	1.165944	dec_nonsocial_low	1.165944	32.000000	n/a	0	-2.364130e-01	-2.364130e-01
117.175490	1.165944	dec_nonsocial_reject_low	1.165944	32.000000	n/a	2	-2.187500e-02	-8.437500e-02
126.424810	1.833902	dec_nonsocial_choice	1.833902	16.000000	n/a	4	1.529255e-02	1.529255e-02
126.424810	1.833902	dec_choice	1.833902	16.000000	n/a	4	1.358696e-02	1.358696e-02
126.424810	1.833902	dec_nonsocial_accept	1.833902	16.000000	n/a	4	-7.650862e-02	-7.650862e-02
126.424810	1.833902	dec_accept	1.833902	16.000000	n/a	4	-1.033654e-01	-1.033654e-01
126.424810	1.833902	dec_nonsocial_high	1.833902	16.000000	n/a	4	1.358696e-02	1.358696e-02
126.424810	1.833902	dec_nonsocial_accept_high	1.833902	16.000000	n/a	4	-1.033654e-01	-1.033654e-01
133.259200	1.115386	dec_nonsocial_choice	1.115386	16.000000	n/a	8	2.652926e-01	2.652926e-01
133.259200	1.115386	dec_choice	1.115386	16.000000	n/a	8	2.635870e-01	2.635870e-01
133.259200	1.115386	dec_nonsocial_accept	1.115386	16.000000	n/a	8	1.734914e-01	1.734914e-01
133.259200	1.115386	dec_accept	1.115386	16.000000	n/a	8	1.466346e-01	1.466346e-01
133.259200	1.115386	dec_nonsocial_high	1.115386	16.000000	n/a	8	2.635870e-01	2.635870e-01
133.259200	1.115386	dec_nonsocial_accept_high	1.115386	16.000000	n/a	8	1.466346e-01	1.466346e-01
140.091930	1.599976	dec_social_choice	1.599976	16.000000	n/a	8	2.652926e-01	2.652926e-01
140.091930	1.599976	dec_choice	1.599976	16.000000	n/a	8	2.669271e-01	2.669271e-01
140.091930	1.599976	dec_social_accept	1.599976	16.000000	n/a	8	1.734914e-01	1.734914e-01
140.091930	1.599976	dec_accept	1.599976	16.000000	n/a	8	1.953125e-01	1.953125e-01
140.091930	1.599976	dec_social_accept_high	1.599976	16.000000	n/a	8	2.669271e-01	2.669271e-01
147.741780	1.333360	dec_nonsocial_choice	1.333360	16.000000	n/a	4	1.529255e-02	1.529255e-02
147.741780	1.333360	dec_choice	1.333360	16.000000	n/a	4	1.358696e-02	1.358696e-02
147.741780	1.333360	dec_nonsocial_accept	1.333360	16.000000	n/a	4	-7.650862e-02	-7.650862e-02
147.741780	1.333360	dec_accept	1.333360	16.000000	n/a	4	-1.033654e-01	-1.033654e-01
147.741780	1.333360	dec_nonsocial_accept_high	1.333360	16.000000	n/a	4	-5.468750e-02	-5.468750e-02
154.575880	1.149195	dec_nonsocial_choice	1.149195	32.000000	n/a	16	2.652926e-01	2.652926e-01
154.575880	1.149195	dec_choice	1.149195	32.000000	n/a	16	2.635870e-01	2.635870e-01
154.575880	1.149195	dec_nonsocial_accept	1.149195	32.000000	n/a	16	1.734914e-01	1.734914e-01
154.575880	1.149195	dec_accept	1.149195	32.000000	n/a	16	1.466346e-01	1.466346e-01
154.575880	1.149195	dec_nonsocial_high	1.149195	32.000000	n/a	16	2.635870e-01	2.635870e-01
154.575880	1.149195	dec_nonsocial_accept_high	1.149195	32.000000	n/a	16	1.466346e-01	1.466346e-01
161.408080	1.400397	dec_nonsocial_choice	1.400397	32.000000	n/a	0	0	-2.347074e-01
161.408080	1.400397	dec_choice	1.400397	32.000000	n/a	0	0	-2.364130e-01
161.408080	1.400397	dec_nonsocial_reject	1.400397	32.000000	n/a	0	0	6.944444e-03
161.408080	1.400397	dec_reject	1.400397	32.000000	n/a	0	0	9.375000e-03
161.408080	1.400397	dec_nonsocial_low	1.400397	32.000000	n/a	0	-2.364130e-01	-2.364130e-01
161.408080	1.400397	dec_nonsocial_reject_low	1.400397	32.000000	n/a	3	9.375000e-03	-8.437500e-02
169.058410	1.533091	dec_social_choice	1.533091	16.000000	n/a	8	2.652926e-01	2.652926e-01
169.058410	1.533091	dec_choice	1.533091	16.000000	n/a	8	2.669271e-01	2.669271e-01
169.058410	1.533091	dec_social_accept	1.533091	16.000000	n/a	8	1.734914e-01	1.734914e-01
169.058410	1.533091	dec_accept	1.533091	16.000000	n/a	8	1.953125e-01	1.953125e-01
169.058410	1.533091	dec_social_high	1.533091	16.000000	n/a	8	2.669271e-01	2.669271e-01
169.058410	1.533091	dec_social_accept_high	1.533091	16.000000	n/a	8	2.669271e-01	2.669271e-01
175.891770	1.116340	dec_nonsocial_choice	1.116340	16.000000	n/a	0	0	-2.347074e-01
175.891770	1.116340	dec_choice	1.116340	16.000000	n/a	0	0	-2.364130e-01
175.891770	1.116340	dec_nonsocial_reject	1.116340	16.000000	n/a	0	0	-2.430556e-02
175.891770	1.116340	dec_reject	1.116340	16.000000	n/a	0	0	-2.187500e-02
175.891770	1.116340	dec_nonsocial_low	1.116340	16.000000	n/a	0	-2.364130e-01	-2.364130e-01
175.891770	1.116340	dec_nonsocial_reject_low	1.116340	16.000000	n/a	1	-2.187500e-02	-8.437500e-02
183.541320	1.466760	dec_nonsocial_choice	1.466760	16.000000	n/a	0	0	-2.347074e-01
183.541320	1.466760	dec_choice	1.466760	16.000000	n/a	0	0	-2.364130e-01
183.541320	1.466760	dec_nonsocial_reject	1.466760	16.000000	n/a	0	0	3.819444e-02
183.541320	1.466760	dec_reject	1.466760	16.000000	n/a	0	0	4.062500e-02
183.541320	1.466760	dec_nonsocial_reject_low	1.466760	16.000000	n/a	2	3.515625e-02	-8.984375e-02
191.191620	2.015937	dec_social_choice	2.015937	16.000000	n/a	1	-1.722074e-01	-1.722074e-01
191.191620	2.015937	dec_choice	2.015937	16.000000	n/a	1	-1.705729e-01	-1.705729e-01
191.191620	2.015937	dec_social_accept	2.015937	16.000000	n/a	1	-2.640086e-01	-2.640086e-01
191.191620	2.015937	dec_accept	2.015937	16.000000	n/a	1	-2.421875e-01	-2.421875e-01
191.191620	2.015937	dec_social_low	2.015937	16.000000	n/a	1	-1.705729e-01	-1.705729e-01
191.191620	2.015937	dec_social_accept_low	2.015937	16.000000	n/a	1	-1.705729e-01	-1.705729e-01
198.841770	2.116217	dec_social_choice	2.116217	16.000000	n/a	1	-1.722074e-01	-1.722074e-01
198.841770	2.116217	dec_choice	2.116217	16.000000	n/a	1	-1.705729e-01	-1.705729e-01
198.841770	2.116217	dec_social_accept	2.116217	16.000000	n/a	1	-2.640086e-01	-2.640086e-01
198.841770	2.116217	dec_accept	2.116217	16.000000	n/a	1	-2.421875e-01	-2.421875e-01
198.841770	2.116217	dec_social_low	2.116217	16.000000	n/a	1	-1.705729e-01	-1.705729e-01
198.841770	2.116217	dec_social_accept_low	2.116217	16.000000	n/a	1	-1.705729e-01	-1.705729e-01
205.674840	1.116908	dec_social_choice	1.116908	16.000000	n/a	2	-1.097074e-01	-1.097074e-01
205.674840	1.116908	dec_choice	1.116908	16.000000	n/a	2	-1.080729e-01	-1.080729e-01
205.674840	1.116908	dec_social_accept	1.116908	16.000000	n/a	2	-2.015086e-01	-2.015086e-01
205.674840	1.116908	dec_accept	1.116908	16.000000	n/a	2	-1.796875e-01	-1.796875e-01
205.674840	1.116908	dec_social_low	1.116908	16.000000	n/a	2	-1.080729e-01	-1.080729e-01
205.674840	1.116908	dec_social_accept_low	1.116908	16.000000	n/a	2	-1.080729e-01	-1.080729e-01
214.925160	1.665968	dec_nonsocial_choice	1.665968	16.000000	n/a	4	1.529255e-02	1.529255e-02
214.925160	1.665968	dec_choice	1.665968	16.000000	n/a	4	1.358696e-02	1.358696e-02
214.925160	1.665968	dec_nonsocial_accept	1.665968	16.000000	n/a	4	-7.650862e-02	-7.650862e-02
214.925160	1.665968	dec_accept	1.665968	16.000000	n/a	4	-1.033654e-01	-1.033654e-01
214.925160	1.665968	dec_nonsocial_accept_high	1.665968	16.000000	n/a	4	-5.468750e-02	-5.468750e-02
221.758240	1.233685	dec_social_choice	1.233685	32.000000	n/a	8	1.529255e-02	1.529255e-02
221.758240	1.233685	dec_choice	1.233685	32.000000	n/a	8	1.692708e-02	1.692708e-02
221.758240	1.233685	dec_social_accept	1.233685	32.000000	n/a	8	-7.650862e-02	-7.650862e-02
221.758240	1.233685	dec_accept	1.233685	32.000000	n/a	8	-5.468750e-02	-5.468750e-02
221.758240	1.233685	dec_social_high	1.233685	32.000000	n/a	8	1.692708e-02	1.692708e-02
221.758240	1.233685	dec_social_accept_high	1.233685	32.000000	n/a	8	1.692708e-02	1.692708e-02
228.592150	1.332992	dec_social_choice	1.332992	32.000000	n/a	8	1.529255e-02	1.529255e-02
228.592150	1.332992	dec_choice	1.332992	32.000000	n/a	8	1.692708e-02	1.692708e-02
228.592150	1.332992	dec_social_accept	1.332992	32.000000	n/a	8	-7.650862e-02	-7.650862e-02
228.592150	1.332992	dec_accept	1.332992	32.000000	n/a	8	-5.468750e-02	-5.468750e-02
228.592150	1.332992	dec_social_accept_high	1.332992	32.000000	n/a	8	1.692708e-02	1.692708e-02
237.842470	1.465357	dec_social_choice	1.465357	32.000000	n/a	0	0	-2.347074e-01
237.842470	1.465357	dec_choice	1.465357	32.000000	n/a	0	0	-2.330729e-01
237.842470	1.465357	dec_social_reject	1.465357	32.000000	n/a	0	0	6.944444e-03
237.842470	1.465357	dec_reject	1.465357	32.000000	n/a	0	0	3.906250e-03
237.842470	1.465357	dec_social_reject_low	1.465357	32.000000	n/a	3	-1.393229e-01	-2.330729e-01
244.674040	0.983883	dec_social_choice	0.983883	32.000000	n/a	16	2.652926e-01	2.652926e-01
244.674040	0.983883	dec_choice	0.983883	32.000000	n/a	16	2.669271e-01	2.669271e-01
244.674040	0.983883	dec_social_accept	0.983883	32.000000	n/a	16	1.734914e-01	1.734914e-01
244.674040	0.983883	dec_accept	0.983883	32.000000	n/a	16	1.953125e-01	1.953125e-01
244.674040	0.983883	dec_social_high	0.983883	32.000000	n/a	16	2.669271e-01	2.669271e-01
244.674040	0.983883	dec_social_accept_high	0.983883	32.000000	n/a	16	2.669271e-01	2.669271e-01
251.507520	1.050980	dec_social_choice	1.050980	32.000000	n/a	8	1.529255e-02	1.529255e-02
251.507520	1.050980	dec_choice	1.050980	32.000000	n/a	8	1.692708e-02	1.692708e-02
251.507520	1.050980	dec_social_accept	1.050980	32.000000	n/a	8	-7.650862e-02	-7.650862e-02
251.507520	1.050980	dec_accept	1.050980	32.000000	n/a	8	-5.468750e-02	-5.468750e-02
251.507520	1.050980	dec_social_accept_high	1.050980	32.000000	n/a	8	1.692708e-02	1.692708e-02
258.342160	1.199608	dec_social_choice	1.199608	16.000000	n/a	0	0	-2.347074e-01
258.342160	1.199608	dec_choice	1.199608	16.000000	n/a	0	0	-2.330729e-01
258.342160	1.199608	dec_social_reject	1.199608	16.000000	n/a	0	0	3.819444e-02
258.342160	1.199608	dec_reject	1.199608	16.000000	n/a	0	0	3.515625e-02
258.342160	1.199608	dec_social_reject_low	1.199608	16.000000	n/a	2	-1.080729e-01	-2.330729e-01
265.174770	1.733042	dec_social_choice	1.733042	16.000000	n/a	4	1.529255e-02	1.529255e-02
265.174770	1.733042	dec_choice	1.733042	16.000000	n/a	4	1.692708e-02	1.692708e-02
265.174770	1.733042	dec_social_accept	1.733042	16.000000	n/a	4	-7.650862e-02	-7.650862e-02
265.174770	1.733042	dec_accept	1.733042	16.000000	n/a	4	-5.468750e-02	-5.468750e-02
265.174770	1.733042	dec_social_high	1.733042	16.000000	n/a	4	1.692708e-02	1.692708e-02
265.174770	1.733042	dec_social_accept_high	1.733042	16.000000	n/a	4	1.692708e-02	1.692708e-02
272.007450	1.067752	dec_social_choice	1.067752	16.000000	n/a	8	2.652926e-01	2.652926e-01
272.007450	1.067752	dec_choice	1.067752	16.000000	n/a	8	2.669271e-01	2.669271e-01
272.007450	1.067752	dec_social_accept	1.067752	16.000000	n/a	8	1.734914e-01	1.734914e-01
272.007450	1.067752	dec_accept	1.067752	16.000000	n/a	8	1.953125e-01	1.953125e-01
272.007450	1.067752	dec_social_accept_high	1.067752	16.000000	n/a	8	2.669271e-01	2.669271e-01
279.642600	1.015433	dec_social_choice	1.015433	16.000000	n/a	0	0	-2.347074e-01
279.642600	1.015433	dec_choice	1.015433	16.000000	n/a	0	0	-2.330729e-01
279.642600	1.015433	dec_social_reject	1.015433	16.000000	n/a	0	0	-2.430556e-02
279.642600	1.015433	dec_reject	1.015433	16.000000	n/a	0	0	-2.734375e-02
279.642600	1.015433	dec_social_low	1.015433	16.000000	n/a	0	-2.330729e-01	-2.330729e-01
279.642600	1.015433	dec_social_reject_low	1.015433	16.000000	n/a	1	-1.705729e-01	-2.330729e-01
286.474240	0.984022	dec_nonsocial_choice	0.984022	16.000000	n/a	8	2.652926e-01	2.652926e-01
286.474240	0.984022	dec_choice	0.984022	16.000000	n/a	8	2.635870e-01	2.635870e-01
286.474240	0.984022	dec_nonsocial_accept	0.984022	16.000000	n/a	8	1.734914e-01	1.734914e-01
286.474240	0.984022	dec_accept	0.984022	16.000000	n/a	8	1.466346e-01	1.466346e-01
286.474240	0.984022	dec_nonsocial_high	0.984022	16.000000	n/a	8	2.635870e-01	2.635870e-01
286.474240	0.984022	dec_nonsocial_accept_high	0.984022	16.000000	n/a	8	1.466346e-01	1.466346e-01
293.308440	1.099932	dec_social_choice	1.099932	32.000000	n/a	0	0	-2.347074e-01
293.308440	1.099932	dec_choice	1.099932	32.000000	n/a	0	0	-2.330729e-01
293.308440	1.099932	dec_social_reject	1.099932	32.000000	n/a	0	0	-2.430556e-02
293.308440	1.099932	dec_reject	1.099932	32.000000	n/a	0	0	-2.734375e-02
293.308440	1.099932	dec_social_reject_low	1.099932	32.000000	n/a	2	-1.705729e-01	-2.330729e-01
300.958160	1.233609	dec_nonsocial_choice	1.233609	16.000000	n/a	0	0	-2.347074e-01
300.958160	1.233609	dec_choice	1.233609	16.000000	n/a	0	0	-2.364130e-01
300.958160	1.233609	dec_nonsocial_reject	1.233609	16.000000	n/a	0	0	3.819444e-02
300.958160	1.233609	dec_reject	1.233609	16.000000	n/a	0	0	4.062500e-02
300.958160	1.233609	dec_nonsocial_reject_low	1.233609	16.000000	n/a	2	3.515625e-02	-8.984375e-02
307.792050	1.133122	dec_social_choice	1.133122	32.000000	n/a	0	0	-2.347074e-01
307.792050	1.133122	dec_choice	1.133122	32.000000	n/a	0	0	-2.330729e-01
307.792050	1.133122	dec_social_reject	1.133122	32.000000	n/a	0	0	-2.430556e-02
307.792050	1.133122	dec_reject	1.133122	32.000000	n/a	0	0	-2.734375e-02
307.792050	1.133122	dec_social_low	1.133122	32.000000	n/a	0	-2.330729e-01	-2.330729e-01
307.792050	1.133122	dec_social_reject_low	1.133122	32.000000	n/a	2	-1.705729e-01	-2.330729e-01
314.625340	1.466643	dec_nonsocial_choice	1.466643	32.000000	n/a	8	1.529255e-02	1.529255e-02
314.625340	1.466643	dec_choice	1.466643	32.000000	n/a	8	1.358696e-02	1.358696e-02
314.625340	1.466643	dec_nonsocial_accept	1.466643	32.000000	n/a	8	-7.650862e-02	-7.650862e-02
314.625340	1.466643	dec_accept	1.466643	32.000000	n/a	8	-1.033654e-01	-1.033654e-01
314.625340	1.466643	dec_nonsocial_high	1.466643	32.000000	n/a	8	1.358696e-02	1.358696e-02
314.625340	1.466643	dec_nonsocial_accept_high	1.466643	32.000000	n/a	8	-1.033654e-01	-1.033654e-01
322.274230	1.150581	dec_nonsocial_choice	1.150581	16.000000	n/a	4	1.529255e-02	1.529255e-02
322.274230	1.150581	dec_choice	1.150581	16.000000	n/a	4	1.358696e-02	1.358696e-02
322.274230	1.150581	dec_nonsocial_accept	1.150581	16.000000	n/a	4	-7.650862e-02	-7.650862e-02
322.274230	1.150581	dec_accept	1.150581	16.000000	n/a	4	-1.033654e-01	-1.033654e-01
322.274230	1.150581	dec_nonsocial_accept_high	1.150581	16.000000	n/a	4	-5.468750e-02	-5.468750e-02
329.925300	1.082648	dec_nonsocial_choice	1.082648	16.000000	n/a	0	0	-2.347074e-01
329.925300	1.082648	dec_choice	1.082648	16.000000	n/a	0	0	-2.364130e-01
329.925300	1.082648	dec_nonsocial_reject	1.082648	16.000000	n/a	0	0	-2.430556e-02
329.925300	1.082648	dec_reject	1.082648	16.000000	n/a	0	0	-2.187500e-02
329.925300	1.082648	dec_nonsocial_low	1.082648	16.000000	n/a	0	-2.364130e-01	-2.364130e-01
329.925300	1.082648	dec_nonsocial_reject_low	1.082648	16.000000	n/a	1	-2.187500e-02	-8.437500e-02
339.174840	1.700107	dec_nonsocial_choice	1.700107	32.000000	n/a	3	-1.409574e-01	-1.409574e-01
339.174840	1.700107	dec_choice	1.700107	32.000000	n/a	3	-1.426630e-01	-1.426630e-01
339.174840	1.700107	dec_nonsocial_accept	1.700107	32.000000	n/a	3	-2.327586e-01	-2.327586e-01
339.174840	1.700107	dec_accept	1.700107	32.000000	n/a	3	-2.596154e-01	-2.596154e-01
339.174840	1.700107	dec_nonsocial_low	1.700107	32.000000	n/a	3	-1.426630e-01	-1.426630e-01
339.174840	1.700107	dec_nonsocial_accept_low	1.700107	32.000000	n/a	3	-2.596154e-01	-2.596154e-01
350.041440	1.500096	dec_nonsocial_choice	1.500096	16.000000	n/a	0	0	-2.347074e-01
350.041440	1.500096	dec_choice	1.500096	16.000000	n/a	0	0	-2.364130e-01
350.041440	1.500096	dec_nonsocial_reject	1.500096	16.000000	n/a	0	0	-2.430556e-02
350.041440	1.500096	dec_reject	1.500096	16.000000	n/a	0	0	-2.187500e-02
350.041440	1.500096	dec_nonsocial_low	1.500096	16.000000	n/a	0	-2.364130e-01	-2.364130e-01
350.041440	1.500096	dec_nonsocial_reject_low	1.500096	16.000000	n/a	1	-2.187500e-02	-8.437500e-02
356.875180	1.449762	dec_social_choice	1.449762	32.000000	n/a	16	2.652926e-01	2.652926e-01
356.875180	1.449762	dec_choice	1.449762	32.000000	n/a	16	2.669271e-01	2.669271e-01
356.875180	1.449762	dec_social_accept	1.449762	32.000000	n/a	16	1.734914e-01	1.734914e-01
356.875180	1.449762	dec_accept	1.449762	32.000000	n/a	16	1.953125e-01	1.953125e-01
356.875180	1.449762	dec_social_accept_high	1.449762	32.000000	n/a	16	2.669271e-01	2.669271e-01
366.125820	1.182495	dec_nonsocial_choice	1.182495	32.000000	n/a	16	2.652926e-01	2.652926e-01
366.125820	1.182495	dec_choice	1.182495	32.000000	n/a	16	2.635870e-01	2.635870e-01
366.125820	1.182495	dec_nonsocial_accept	1.182495	32.000000	n/a	16	1.734914e-01	1.734914e-01
366.125820	1.182495	dec_accept	1.182495	32.000000	n/a	16	1.466346e-01	1.466346e-01
366.125820	1.182495	dec_nonsocial_high	1.182495	32.000000	n/a	16	2.635870e-01	2.635870e-01
366.125820	1.182495	dec_nonsocial_accept_high	1.182495	32.000000	n/a	16	1.466346e-01	1.466346e-01
372.957820	0.983313	dec_nonsocial_choice	0.983313	16.000000	n/a	0	0	-2.347074e-01
372.957820	0.983313	dec_choice	0.983313	16.000000	n/a	0	0	-2.364130e-01
372.957820	0.983313	dec_nonsocial_reject	0.983313	16.000000	n/a	0	0	-2.430556e-02
372.957820	0.983313	dec_reject	0.983313	16.000000	n/a	0	0	-2.187500e-02
372.957820	0.983313	dec_nonsocial_low	0.983313	16.000000	n/a	0	-2.364130e-01	-2.364130e-01
372.957820	0.983313	dec_nonsocial_reject_low	0.983313	16.000000	n/a	1	-2.187500e-02	-8.437500e-02
