onset	duration	trial_type	response_time	Endowment	Endowment_pmod	Decision	Decision_pmod	Offer_pmod
4.516881	2	cue_nonsocial	n/a	32	12	n/a	n/a	n/a
4.516881	2	cue_nonsocial_high	n/a	32	9	n/a	n/a	n/a
12.265109	2	cue_social	n/a	16	-7	n/a	n/a	n/a
12.265109	2	cue_social_low	n/a	16	-4	n/a	n/a	n/a
19.000116	2	cue_nonsocial	n/a	16	-4	n/a	n/a	n/a
19.000116	2	cue_nonsocial_low	n/a	16	-7	n/a	n/a	n/a
29.883524	2	cue_nonsocial	n/a	16	-4	n/a	n/a	n/a
29.883524	2	cue_nonsocial_low	n/a	16	-7	n/a	n/a	n/a
36.820026	2	cue_social	n/a	16	-7	n/a	n/a	n/a
36.820026	2	cue_social_low	n/a	16	-4	n/a	n/a	n/a
43.549870	2	cue_nonsocial	n/a	16	-4	n/a	n/a	n/a
43.549870	2	cue_nonsocial_low	n/a	16	-7	n/a	n/a	n/a
51.200370	2	cue_nonsocial	n/a	16	-4	n/a	n/a	n/a
51.200370	2	cue_nonsocial_low	n/a	16	-7	n/a	n/a	n/a
60.577480	2	cue_social	n/a	16	-7	n/a	n/a	n/a
60.577480	2	cue_social_low	n/a	16	-4	n/a	n/a	n/a
67.430626	2	cue_social	n/a	32	9	n/a	n/a	n/a
67.430626	2	cue_social_high	n/a	32	12	n/a	n/a	n/a
74.932970	2	cue_nonsocial	n/a	16	-4	n/a	n/a	n/a
74.932970	2	cue_nonsocial_low	n/a	16	-7	n/a	n/a	n/a
81.870415	2	cue_social	n/a	32	9	n/a	n/a	n/a
81.870415	2	cue_social_high	n/a	32	12	n/a	n/a	n/a
88.708220	2	cue_social	n/a	16	-7	n/a	n/a	n/a
88.708220	2	cue_social_low	n/a	16	-4	n/a	n/a	n/a
96.352660	2	cue_social	n/a	32	9	n/a	n/a	n/a
96.352660	2	cue_social_high	n/a	32	12	n/a	n/a	n/a
103.083060	2	cue_nonsocial	n/a	16	-4	n/a	n/a	n/a
103.083060	2	cue_nonsocial_low	n/a	16	-7	n/a	n/a	n/a
113.950400	2	cue_nonsocial	n/a	32	12	n/a	n/a	n/a
113.950400	2	cue_nonsocial_high	n/a	32	9	n/a	n/a	n/a
124.923935	2	cue_social	n/a	32	9	n/a	n/a	n/a
124.923935	2	cue_social_high	n/a	32	12	n/a	n/a	n/a
132.466770	2	cue_nonsocial	n/a	16	-4	n/a	n/a	n/a
132.466770	2	cue_nonsocial_low	n/a	16	-7	n/a	n/a	n/a
139.307140	2	cue_social	n/a	16	-7	n/a	n/a	n/a
139.307140	2	cue_social_low	n/a	16	-4	n/a	n/a	n/a
146.132870	2	cue_nonsocial	n/a	32	12	n/a	n/a	n/a
146.132870	2	cue_nonsocial_high	n/a	32	9	n/a	n/a	n/a
155.499270	2	cue_social	n/a	32	9	n/a	n/a	n/a
155.499270	2	cue_social_high	n/a	32	12	n/a	n/a	n/a
163.046330	2	cue_social	n/a	16	-7	n/a	n/a	n/a
163.046330	2	cue_social_low	n/a	16	-4	n/a	n/a	n/a
169.883070	2	cue_nonsocial	n/a	16	-4	n/a	n/a	n/a
169.883070	2	cue_nonsocial_low	n/a	16	-7	n/a	n/a	n/a
176.716260	2	cue_nonsocial	n/a	16	-4	n/a	n/a	n/a
176.716260	2	cue_nonsocial_low	n/a	16	-7	n/a	n/a	n/a
183.566850	2	cue_social	n/a	32	9	n/a	n/a	n/a
183.566850	2	cue_social_high	n/a	32	12	n/a	n/a	n/a
191.275240	2	cue_social	n/a	32	9	n/a	n/a	n/a
191.275240	2	cue_social_high	n/a	32	12	n/a	n/a	n/a
200.574450	2	cue_social	n/a	16	-7	n/a	n/a	n/a
200.574450	2	cue_social_low	n/a	16	-4	n/a	n/a	n/a
207.298570	2	cue_social	n/a	16	-7	n/a	n/a	n/a
207.298570	2	cue_social_low	n/a	16	-4	n/a	n/a	n/a
214.133510	2	cue_nonsocial	n/a	16	-4	n/a	n/a	n/a
214.133510	2	cue_nonsocial_low	n/a	16	-7	n/a	n/a	n/a
221.766020	2	cue_nonsocial	n/a	16	-4	n/a	n/a	n/a
221.766020	2	cue_nonsocial_low	n/a	16	-7	n/a	n/a	n/a
228.700350	2	cue_social	n/a	16	-7	n/a	n/a	n/a
228.700350	2	cue_social_low	n/a	16	-4	n/a	n/a	n/a
236.347270	2	cue_social	n/a	16	-7	n/a	n/a	n/a
236.347270	2	cue_social_low	n/a	16	-4	n/a	n/a	n/a
243.110570	2	cue_social	n/a	32	9	n/a	n/a	n/a
243.110570	2	cue_social_high	n/a	32	12	n/a	n/a	n/a
250.024570	2	cue_social	n/a	16	-7	n/a	n/a	n/a
250.024570	2	cue_social_low	n/a	16	-4	n/a	n/a	n/a
256.750060	2	cue_nonsocial	n/a	16	-4	n/a	n/a	n/a
256.750060	2	cue_nonsocial_low	n/a	16	-7	n/a	n/a	n/a
263.583220	2	cue_nonsocial	n/a	16	-4	n/a	n/a	n/a
263.583220	2	cue_nonsocial_low	n/a	16	-7	n/a	n/a	n/a
271.232640	2	cue_nonsocial	n/a	16	-4	n/a	n/a	n/a
271.232640	2	cue_nonsocial_low	n/a	16	-7	n/a	n/a	n/a
278.145940	2	cue_social	n/a	32	9	n/a	n/a	n/a
278.145940	2	cue_social_high	n/a	32	12	n/a	n/a	n/a
287.396550	2	cue_social	n/a	16	-7	n/a	n/a	n/a
287.396550	2	cue_social_low	n/a	16	-4	n/a	n/a	n/a
294.966220	2	cue_nonsocial	n/a	16	-4	n/a	n/a	n/a
294.966220	2	cue_nonsocial_low	n/a	16	-7	n/a	n/a	n/a
304.317600	2	cue_social	n/a	16	-7	n/a	n/a	n/a
304.317600	2	cue_social_low	n/a	16	-4	n/a	n/a	n/a
313.566300	2	cue_social	n/a	32	9	n/a	n/a	n/a
313.566300	2	cue_social_high	n/a	32	12	n/a	n/a	n/a
320.315950	2	cue_nonsocial	n/a	32	12	n/a	n/a	n/a
320.315950	2	cue_nonsocial_high	n/a	32	9	n/a	n/a	n/a
332.799650	2	cue_nonsocial	n/a	32	12	n/a	n/a	n/a
332.799650	2	cue_nonsocial_high	n/a	32	9	n/a	n/a	n/a
339.702120	2	cue_social	n/a	16	-7	n/a	n/a	n/a
339.702120	2	cue_social_low	n/a	16	-4	n/a	n/a	n/a
346.465800	2	cue_nonsocial	n/a	16	-4	n/a	n/a	n/a
346.465800	2	cue_nonsocial_low	n/a	16	-7	n/a	n/a	n/a
354.116200	2	cue_nonsocial	n/a	16	-4	n/a	n/a	n/a
354.116200	2	cue_nonsocial_low	n/a	16	-7	n/a	n/a	n/a
361.765840	2	cue_nonsocial	n/a	32	12	n/a	n/a	n/a
361.765840	2	cue_nonsocial_high	n/a	32	9	n/a	n/a	n/a
371.016100	2	cue_nonsocial	n/a	16	-4	n/a	n/a	n/a
371.016100	2	cue_nonsocial_low	n/a	16	-7	n/a	n/a	n/a
6.522784	2.415386	dec_nonsocial_choice	2.415386	32.000000	n/a	0	0	-2.317708e-01
6.522784	2.415386	dec_choice	2.415386	32.000000	n/a	0	0	-2.330729e-01
6.522784	2.415386	dec_nonsocial_reject	2.415386	32.000000	n/a	0	0	-5.769231e-02
6.522784	2.415386	dec_reject	2.415386	32.000000	n/a	0	0	-6.009615e-02
6.522784	2.415386	dec_nonsocial_reject_low	2.415386	32.000000	n/a	2	-5.528846e-02	-1.177885e-01
14.171875	2.083596	dec_social_choice	2.083596	16.000000	n/a	4	1.822917e-02	1.822917e-02
14.171875	2.083596	dec_choice	2.083596	16.000000	n/a	4	1.953125e-02	1.953125e-02
14.171875	2.083596	dec_social_accept	2.083596	16.000000	n/a	4	-1.136364e-01	-1.136364e-01
14.171875	2.083596	dec_accept	2.083596	16.000000	n/a	4	-1.136364e-01	-1.136364e-01
14.171875	2.083596	dec_social_high	2.083596	16.000000	n/a	4	1.953125e-02	1.953125e-02
14.171875	2.083596	dec_social_accept_high	2.083596	16.000000	n/a	4	1.953125e-02	1.953125e-02
21.006092	1.565791	dec_nonsocial_choice	1.565791	16.000000	n/a	8	2.682292e-01	2.682292e-01
21.006092	1.565791	dec_choice	1.565791	16.000000	n/a	8	2.669271e-01	2.669271e-01
21.006092	1.565791	dec_nonsocial_accept	1.565791	16.000000	n/a	8	1.363636e-01	1.363636e-01
21.006092	1.565791	dec_accept	1.565791	16.000000	n/a	8	1.363636e-01	1.363636e-01
21.006092	1.565791	dec_nonsocial_high	1.565791	16.000000	n/a	8	2.669271e-01	2.669271e-01
21.006092	1.565791	dec_nonsocial_accept_high	1.565791	16.000000	n/a	8	1.363636e-01	1.363636e-01
31.889332	1.183146	dec_nonsocial_choice	1.183146	16.000000	n/a	0	0	-2.317708e-01
31.889332	1.183146	dec_choice	1.183146	16.000000	n/a	0	0	-2.330729e-01
31.889332	1.183146	dec_nonsocial_reject	1.183146	16.000000	n/a	0	0	3.798077e-01
31.889332	1.183146	dec_reject	1.183146	16.000000	n/a	0	0	3.774038e-01
31.889332	1.183146	dec_nonsocial_low	1.183146	16.000000	n/a	0	-2.330729e-01	-2.330729e-01
31.889332	1.183146	dec_nonsocial_reject_low	1.183146	16.000000	n/a	8	3.774038e-01	-1.225962e-01
38.722775	2.565556	dec_social_choice	2.565556	16.000000	n/a	0	0	-2.317708e-01
38.722775	2.565556	dec_choice	2.565556	16.000000	n/a	0	0	-2.304688e-01
38.722775	2.565556	dec_social_reject	2.565556	16.000000	n/a	0	0	3.798077e-01
38.722775	2.565556	dec_reject	2.565556	16.000000	n/a	0	0	3.822115e-01
38.722775	2.565556	dec_social_reject_low	2.565556	16.000000	n/a	8	2.695312e-01	-2.304688e-01
45.555756	2.150051	dec_nonsocial_choice	2.150051	16.000000	n/a	0	0	-2.317708e-01
45.555756	2.150051	dec_choice	2.150051	16.000000	n/a	0	0	-2.330729e-01
45.555756	2.150051	dec_nonsocial_reject	2.150051	16.000000	n/a	0	0	4.807692e-03
45.555756	2.150051	dec_reject	2.150051	16.000000	n/a	0	0	2.403846e-03
45.555756	2.150051	dec_nonsocial_reject_low	2.150051	16.000000	n/a	2	7.211538e-03	-1.177885e-01
53.205666	1.883675	dec_nonsocial_choice	1.883675	16.000000	n/a	0	0	-2.317708e-01
53.205666	1.883675	dec_choice	1.883675	16.000000	n/a	0	0	-2.330729e-01
53.205666	1.883675	dec_nonsocial_reject	1.883675	16.000000	n/a	0	0	4.807692e-03
53.205666	1.883675	dec_reject	1.883675	16.000000	n/a	0	0	2.403846e-03
53.205666	1.883675	dec_nonsocial_low	1.883675	16.000000	n/a	0	-2.330729e-01	-2.330729e-01
53.205666	1.883675	dec_nonsocial_reject_low	1.883675	16.000000	n/a	2	2.403846e-03	-1.225962e-01
62.455082	1.983500	dec_social_choice	1.983500	16.000000	n/a	0	0	-2.317708e-01
62.455082	1.983500	dec_choice	1.983500	16.000000	n/a	0	0	-2.304688e-01
62.455082	1.983500	dec_social_reject	1.983500	16.000000	n/a	0	0	4.807692e-03
62.455082	1.983500	dec_reject	1.983500	16.000000	n/a	0	0	7.211538e-03
62.455082	1.983500	dec_social_low	1.983500	16.000000	n/a	0	-2.304688e-01	-2.304688e-01
62.455082	1.983500	dec_social_reject_low	1.983500	16.000000	n/a	2	-1.054688e-01	-2.304688e-01
69.289690	1.548633	dec_social_choice	1.548633	32.000000	n/a	0	0	-2.317708e-01
69.289690	1.548633	dec_choice	1.548633	32.000000	n/a	0	0	-2.304688e-01
69.289690	1.548633	dec_social_reject	1.548633	32.000000	n/a	0	0	-2.644231e-02
69.289690	1.548633	dec_reject	1.548633	32.000000	n/a	0	0	-2.403846e-02
69.289690	1.548633	dec_social_reject_low	1.548633	32.000000	n/a	3	-1.367188e-01	-2.304688e-01
76.938750	1.815996	dec_nonsocial_choice	1.815996	16.000000	n/a	8	2.682292e-01	2.682292e-01
76.938750	1.815996	dec_choice	1.815996	16.000000	n/a	8	2.669271e-01	2.669271e-01
76.938750	1.815996	dec_nonsocial_accept	1.815996	16.000000	n/a	8	1.363636e-01	1.363636e-01
76.938750	1.815996	dec_accept	1.815996	16.000000	n/a	8	1.363636e-01	1.363636e-01
76.938750	1.815996	dec_nonsocial_accept_high	1.815996	16.000000	n/a	8	1.363636e-01	1.363636e-01
83.771960	1.800161	dec_social_choice	1.800161	32.000000	n/a	0	0	-2.317708e-01
83.771960	1.800161	dec_choice	1.800161	32.000000	n/a	0	0	-2.304688e-01
83.771960	1.800161	dec_social_reject	1.800161	32.000000	n/a	0	0	-2.644231e-02
83.771960	1.800161	dec_reject	1.800161	32.000000	n/a	0	0	-2.403846e-02
83.771960	1.800161	dec_social_reject_low	1.800161	32.000000	n/a	3	-1.367188e-01	-2.304688e-01
90.604774	1.750925	dec_social_choice	1.750925	16.000000	n/a	8	2.682292e-01	2.682292e-01
90.604774	1.750925	dec_choice	1.750925	16.000000	n/a	8	2.695312e-01	2.695312e-01
90.604774	1.750925	dec_social_accept	1.750925	16.000000	n/a	8	1.363636e-01	1.363636e-01
90.604774	1.750925	dec_accept	1.750925	16.000000	n/a	8	1.363636e-01	1.363636e-01
90.604774	1.750925	dec_social_high	1.750925	16.000000	n/a	8	2.695312e-01	2.695312e-01
90.604774	1.750925	dec_social_accept_high	1.750925	16.000000	n/a	8	2.695312e-01	2.695312e-01
98.255615	1.815523	dec_social_choice	1.815523	32.000000	n/a	0	0	-2.317708e-01
98.255615	1.815523	dec_choice	1.815523	32.000000	n/a	0	0	-2.304688e-01
98.255615	1.815523	dec_social_reject	1.815523	32.000000	n/a	0	0	-5.769231e-02
98.255615	1.815523	dec_reject	1.815523	32.000000	n/a	0	0	-5.528846e-02
98.255615	1.815523	dec_social_low	1.815523	32.000000	n/a	0	-2.304688e-01	-2.304688e-01
98.255615	1.815523	dec_social_reject_low	1.815523	32.000000	n/a	2	-1.679688e-01	-2.304688e-01
105.088710	1.750467	dec_nonsocial_choice	1.750467	16.000000	n/a	0	0	-2.317708e-01
105.088710	1.750467	dec_choice	1.750467	16.000000	n/a	0	0	-2.330729e-01
105.088710	1.750467	dec_nonsocial_reject	1.750467	16.000000	n/a	0	0	-5.769231e-02
105.088710	1.750467	dec_reject	1.750467	16.000000	n/a	0	0	-6.009615e-02
105.088710	1.750467	dec_nonsocial_low	1.750467	16.000000	n/a	0	-2.330729e-01	-2.330729e-01
105.088710	1.750467	dec_nonsocial_reject_low	1.750467	16.000000	n/a	1	-6.009615e-02	-1.225962e-01
115.955826	1.733510	dec_nonsocial_choice	1.733510	32.000000	n/a	0	0	-2.317708e-01
115.955826	1.733510	dec_choice	1.733510	32.000000	n/a	0	0	-2.330729e-01
115.955826	1.733510	dec_nonsocial_reject	1.733510	32.000000	n/a	0	0	-2.644231e-02
115.955826	1.733510	dec_reject	1.733510	32.000000	n/a	0	0	-2.884615e-02
115.955826	1.733510	dec_nonsocial_low	1.733510	32.000000	n/a	0	-2.330729e-01	-2.330729e-01
115.955826	1.733510	dec_nonsocial_reject_low	1.733510	32.000000	n/a	3	-2.884615e-02	-1.225962e-01
126.821990	1.733651	dec_social_choice	1.733651	32.000000	n/a	8	1.822917e-02	1.822917e-02
126.821990	1.733651	dec_choice	1.733651	32.000000	n/a	8	1.953125e-02	1.953125e-02
126.821990	1.733651	dec_social_accept	1.733651	32.000000	n/a	8	-1.136364e-01	-1.136364e-01
126.821990	1.733651	dec_accept	1.733651	32.000000	n/a	8	-1.136364e-01	-1.136364e-01
126.821990	1.733651	dec_social_accept_high	1.733651	32.000000	n/a	8	1.953125e-02	1.953125e-02
134.471820	1.600279	dec_nonsocial_choice	1.600279	16.000000	n/a	4	1.822917e-02	1.822917e-02
134.471820	1.600279	dec_choice	1.600279	16.000000	n/a	4	1.692708e-02	1.692708e-02
134.471820	1.600279	dec_nonsocial_accept	1.600279	16.000000	n/a	4	-1.136364e-01	-1.136364e-01
134.471820	1.600279	dec_accept	1.600279	16.000000	n/a	4	-1.136364e-01	-1.136364e-01
134.471820	1.600279	dec_nonsocial_accept_high	1.600279	16.000000	n/a	4	-1.136364e-01	-1.136364e-01
141.305770	1.583280	dec_social_choice	1.583280	16.000000	n/a	0	0	-2.317708e-01
141.305770	1.583280	dec_choice	1.583280	16.000000	n/a	0	0	-2.304688e-01
141.305770	1.583280	dec_social_reject	1.583280	16.000000	n/a	0	0	4.807692e-03
141.305770	1.583280	dec_reject	1.583280	16.000000	n/a	0	0	7.211538e-03
141.305770	1.583280	dec_social_low	1.583280	16.000000	n/a	0	-2.304688e-01	-2.304688e-01
141.305770	1.583280	dec_social_reject_low	1.583280	16.000000	n/a	2	-1.054688e-01	-2.304688e-01
148.139740	1.699346	dec_nonsocial_choice	1.699346	32.000000	n/a	8	1.822917e-02	1.822917e-02
148.139740	1.699346	dec_choice	1.699346	32.000000	n/a	8	1.692708e-02	1.692708e-02
148.139740	1.699346	dec_nonsocial_accept	1.699346	32.000000	n/a	8	-1.136364e-01	-1.136364e-01
148.139740	1.699346	dec_accept	1.699346	32.000000	n/a	8	-1.136364e-01	-1.136364e-01
148.139740	1.699346	dec_nonsocial_high	1.699346	32.000000	n/a	8	1.692708e-02	1.692708e-02
148.139740	1.699346	dec_nonsocial_accept_high	1.699346	32.000000	n/a	8	-1.136364e-01	-1.136364e-01
157.405820	1.482812	dec_social_choice	1.482812	32.000000	n/a	0	0	-2.317708e-01
157.405820	1.482812	dec_choice	1.482812	32.000000	n/a	0	0	-2.304688e-01
157.405820	1.482812	dec_social_reject	1.482812	32.000000	n/a	0	0	-5.769231e-02
157.405820	1.482812	dec_reject	1.482812	32.000000	n/a	0	0	-5.528846e-02
157.405820	1.482812	dec_social_reject_low	1.482812	32.000000	n/a	2	-1.679688e-01	-2.304688e-01
165.056170	1.532495	dec_social_choice	1.532495	16.000000	n/a	0	0	-2.317708e-01
165.056170	1.532495	dec_choice	1.532495	16.000000	n/a	0	0	-2.304688e-01
165.056170	1.532495	dec_social_reject	1.532495	16.000000	n/a	0	0	-5.769231e-02
165.056170	1.532495	dec_reject	1.532495	16.000000	n/a	0	0	-5.528846e-02
165.056170	1.532495	dec_social_reject_low	1.532495	16.000000	n/a	1	-1.679688e-01	-2.304688e-01
171.888800	1.233392	dec_nonsocial_choice	1.233392	16.000000	n/a	0	0	-2.317708e-01
171.888800	1.233392	dec_choice	1.233392	16.000000	n/a	0	0	-2.330729e-01
171.888800	1.233392	dec_nonsocial_reject	1.233392	16.000000	n/a	0	0	-5.769231e-02
171.888800	1.233392	dec_reject	1.233392	16.000000	n/a	0	0	-6.009615e-02
171.888800	1.233392	dec_nonsocial_reject_low	1.233392	16.000000	n/a	1	-5.528846e-02	-1.177885e-01
178.721980	1.715998	dec_nonsocial_choice	1.715998	16.000000	n/a	0	0	-2.317708e-01
178.721980	1.715998	dec_choice	1.715998	16.000000	n/a	0	0	-2.330729e-01
178.721980	1.715998	dec_nonsocial_reject	1.715998	16.000000	n/a	0	0	4.807692e-03
178.721980	1.715998	dec_reject	1.715998	16.000000	n/a	0	0	2.403846e-03
178.721980	1.715998	dec_nonsocial_low	1.715998	16.000000	n/a	0	-2.330729e-01	-2.330729e-01
178.721980	1.715998	dec_nonsocial_reject_low	1.715998	16.000000	n/a	2	2.403846e-03	-1.225962e-01
185.555080	1.150691	dec_social_choice	1.150691	32.000000	n/a	16	2.682292e-01	2.682292e-01
185.555080	1.150691	dec_choice	1.150691	32.000000	n/a	16	2.695312e-01	2.695312e-01
185.555080	1.150691	dec_social_accept	1.150691	32.000000	n/a	16	1.363636e-01	1.363636e-01
185.555080	1.150691	dec_accept	1.150691	32.000000	n/a	16	1.363636e-01	1.363636e-01
185.555080	1.150691	dec_social_accept_high	1.150691	32.000000	n/a	16	2.695312e-01	2.695312e-01
193.204790	1.083427	dec_social_choice	1.083427	32.000000	n/a	16	2.682292e-01	2.682292e-01
193.204790	1.083427	dec_choice	1.083427	32.000000	n/a	16	2.695312e-01	2.695312e-01
193.204790	1.083427	dec_social_accept	1.083427	32.000000	n/a	16	1.363636e-01	1.363636e-01
193.204790	1.083427	dec_accept	1.083427	32.000000	n/a	16	1.363636e-01	1.363636e-01
193.204790	1.083427	dec_social_accept_high	1.083427	32.000000	n/a	16	2.695312e-01	2.695312e-01
202.471920	1.100018	dec_social_choice	1.100018	16.000000	n/a	4	1.822917e-02	1.822917e-02
202.471920	1.100018	dec_choice	1.100018	16.000000	n/a	4	1.953125e-02	1.953125e-02
202.471920	1.100018	dec_social_accept	1.100018	16.000000	n/a	4	-1.136364e-01	-1.136364e-01
202.471920	1.100018	dec_accept	1.100018	16.000000	n/a	4	-1.136364e-01	-1.136364e-01
202.471920	1.100018	dec_social_accept_high	1.100018	16.000000	n/a	4	1.953125e-02	1.953125e-02
209.304780	1.516810	dec_social_choice	1.516810	16.000000	n/a	8	2.682292e-01	2.682292e-01
209.304780	1.516810	dec_choice	1.516810	16.000000	n/a	8	2.695312e-01	2.695312e-01
209.304780	1.516810	dec_social_accept	1.516810	16.000000	n/a	8	1.363636e-01	1.363636e-01
209.304780	1.516810	dec_accept	1.516810	16.000000	n/a	8	1.363636e-01	1.363636e-01
209.304780	1.516810	dec_social_high	1.516810	16.000000	n/a	8	2.695312e-01	2.695312e-01
209.304780	1.516810	dec_social_accept_high	1.516810	16.000000	n/a	8	2.695312e-01	2.695312e-01
216.137880	1.317837	dec_nonsocial_choice	1.317837	16.000000	n/a	8	2.682292e-01	2.682292e-01
216.137880	1.317837	dec_choice	1.317837	16.000000	n/a	8	2.669271e-01	2.669271e-01
216.137880	1.317837	dec_nonsocial_accept	1.317837	16.000000	n/a	8	1.363636e-01	1.363636e-01
216.137880	1.317837	dec_accept	1.317837	16.000000	n/a	8	1.363636e-01	1.363636e-01
216.137880	1.317837	dec_nonsocial_high	1.317837	16.000000	n/a	8	2.669271e-01	2.669271e-01
216.137880	1.317837	dec_nonsocial_accept_high	1.317837	16.000000	n/a	8	1.363636e-01	1.363636e-01
223.772720	1.249376	dec_nonsocial_choice	1.249376	16.000000	n/a	8	2.682292e-01	2.682292e-01
223.772720	1.249376	dec_choice	1.249376	16.000000	n/a	8	2.669271e-01	2.669271e-01
223.772720	1.249376	dec_nonsocial_accept	1.249376	16.000000	n/a	8	1.363636e-01	1.363636e-01
223.772720	1.249376	dec_accept	1.249376	16.000000	n/a	8	1.363636e-01	1.363636e-01
223.772720	1.249376	dec_nonsocial_high	1.249376	16.000000	n/a	8	2.669271e-01	2.669271e-01
223.772720	1.249376	dec_nonsocial_accept_high	1.249376	16.000000	n/a	8	1.363636e-01	1.363636e-01
230.605210	1.350110	dec_social_choice	1.350110	16.000000	n/a	4	1.822917e-02	1.822917e-02
230.605210	1.350110	dec_choice	1.350110	16.000000	n/a	4	1.953125e-02	1.953125e-02
230.605210	1.350110	dec_social_accept	1.350110	16.000000	n/a	4	-1.136364e-01	-1.136364e-01
230.605210	1.350110	dec_accept	1.350110	16.000000	n/a	4	-1.136364e-01	-1.136364e-01
230.605210	1.350110	dec_social_high	1.350110	16.000000	n/a	4	1.953125e-02	1.953125e-02
230.605210	1.350110	dec_social_accept_high	1.350110	16.000000	n/a	4	1.953125e-02	1.953125e-02
238.255310	0.984031	dec_social_choice	0.984031	16.000000	n/a	0	0	-2.317708e-01
238.255310	0.984031	dec_choice	0.984031	16.000000	n/a	0	0	-2.304688e-01
238.255310	0.984031	dec_social_reject	0.984031	16.000000	n/a	0	0	4.807692e-03
238.255310	0.984031	dec_reject	0.984031	16.000000	n/a	0	0	7.211538e-03
238.255310	0.984031	dec_social_reject_low	0.984031	16.000000	n/a	2	-1.054688e-01	-2.304688e-01
245.088440	1.666664	dec_social_choice	1.666664	32.000000	n/a	0	0	-2.317708e-01
245.088440	1.666664	dec_choice	1.666664	32.000000	n/a	0	0	-2.304688e-01
245.088440	1.666664	dec_social_reject	1.666664	32.000000	n/a	0	0	-2.644231e-02
245.088440	1.666664	dec_reject	1.666664	32.000000	n/a	0	0	-2.403846e-02
245.088440	1.666664	dec_social_low	1.666664	32.000000	n/a	0	-2.304688e-01	-2.304688e-01
245.088440	1.666664	dec_social_reject_low	1.666664	32.000000	n/a	3	-1.367188e-01	-2.304688e-01
251.921880	1.900269	dec_social_choice	1.900269	16.000000	n/a	4	1.822917e-02	1.822917e-02
251.921880	1.900269	dec_choice	1.900269	16.000000	n/a	4	1.953125e-02	1.953125e-02
251.921880	1.900269	dec_social_accept	1.900269	16.000000	n/a	4	-1.136364e-01	-1.136364e-01
251.921880	1.900269	dec_accept	1.900269	16.000000	n/a	4	-1.136364e-01	-1.136364e-01
251.921880	1.900269	dec_social_high	1.900269	16.000000	n/a	4	1.953125e-02	1.953125e-02
251.921880	1.900269	dec_social_accept_high	1.900269	16.000000	n/a	4	1.953125e-02	1.953125e-02
258.755920	1.449488	dec_nonsocial_choice	1.449488	16.000000	n/a	4	1.822917e-02	1.822917e-02
258.755920	1.449488	dec_choice	1.449488	16.000000	n/a	4	1.692708e-02	1.692708e-02
258.755920	1.449488	dec_nonsocial_accept	1.449488	16.000000	n/a	4	-1.136364e-01	-1.136364e-01
258.755920	1.449488	dec_accept	1.449488	16.000000	n/a	4	-1.136364e-01	-1.136364e-01
258.755920	1.449488	dec_nonsocial_high	1.449488	16.000000	n/a	4	1.692708e-02	1.692708e-02
258.755920	1.449488	dec_nonsocial_accept_high	1.449488	16.000000	n/a	4	-1.136364e-01	-1.136364e-01
265.588070	1.083790	dec_nonsocial_choice	1.083790	16.000000	n/a	0	0	-2.317708e-01
265.588070	1.083790	dec_choice	1.083790	16.000000	n/a	0	0	-2.330729e-01
265.588070	1.083790	dec_nonsocial_reject	1.083790	16.000000	n/a	0	0	4.807692e-03
265.588070	1.083790	dec_reject	1.083790	16.000000	n/a	0	0	2.403846e-03
265.588070	1.083790	dec_nonsocial_reject_low	1.083790	16.000000	n/a	2	7.211538e-03	-1.177885e-01
273.239800	1.282099	dec_nonsocial_choice	1.282099	16.000000	n/a	0	0	-2.317708e-01
273.239800	1.282099	dec_choice	1.282099	16.000000	n/a	0	0	-2.330729e-01
273.239800	1.282099	dec_nonsocial_reject	1.282099	16.000000	n/a	0	0	4.807692e-03
273.239800	1.282099	dec_reject	1.282099	16.000000	n/a	0	0	2.403846e-03
273.239800	1.282099	dec_nonsocial_reject_low	1.282099	16.000000	n/a	2	7.211538e-03	-1.177885e-01
280.070980	1.184116	dec_social_choice	1.184116	32.000000	n/a	0	0	-2.317708e-01
280.070980	1.184116	dec_choice	1.184116	32.000000	n/a	0	0	-2.304688e-01
280.070980	1.184116	dec_social_reject	1.184116	32.000000	n/a	0	0	-5.769231e-02
280.070980	1.184116	dec_reject	1.184116	32.000000	n/a	0	0	-5.528846e-02
280.070980	1.184116	dec_social_reject_low	1.184116	32.000000	n/a	2	-1.679688e-01	-2.304688e-01
289.321720	1.283310	dec_social_choice	1.283310	16.000000	n/a	8	2.682292e-01	2.682292e-01
289.321720	1.283310	dec_choice	1.283310	16.000000	n/a	8	2.695312e-01	2.695312e-01
289.321720	1.283310	dec_social_accept	1.283310	16.000000	n/a	8	1.363636e-01	1.363636e-01
289.321720	1.283310	dec_accept	1.283310	16.000000	n/a	8	1.363636e-01	1.363636e-01
289.321720	1.283310	dec_social_high	1.283310	16.000000	n/a	8	2.695312e-01	2.695312e-01
289.321720	1.283310	dec_social_accept_high	1.283310	16.000000	n/a	8	2.695312e-01	2.695312e-01
296.971770	1.133521	dec_nonsocial_choice	1.133521	16.000000	n/a	0	0	-2.317708e-01
296.971770	1.133521	dec_choice	1.133521	16.000000	n/a	0	0	-2.330729e-01
296.971770	1.133521	dec_nonsocial_reject	1.133521	16.000000	n/a	0	0	-5.769231e-02
296.971770	1.133521	dec_reject	1.133521	16.000000	n/a	0	0	-6.009615e-02
296.971770	1.133521	dec_nonsocial_reject_low	1.133521	16.000000	n/a	1	-5.528846e-02	-1.177885e-01
306.238900	1.983032	dec_social_choice	1.983032	16.000000	n/a	0	0	-2.317708e-01
306.238900	1.983032	dec_choice	1.983032	16.000000	n/a	0	0	-2.304688e-01
306.238900	1.983032	dec_social_reject	1.983032	16.000000	n/a	0	0	-5.769231e-02
306.238900	1.983032	dec_reject	1.983032	16.000000	n/a	0	0	-5.528846e-02
306.238900	1.983032	dec_social_low	1.983032	16.000000	n/a	0	-2.304688e-01	-2.304688e-01
306.238900	1.983032	dec_social_reject_low	1.983032	16.000000	n/a	1	-1.679688e-01	-2.304688e-01
315.487820	1.367696	dec_social_choice	1.367696	32.000000	n/a	0	0	-2.317708e-01
315.487820	1.367696	dec_choice	1.367696	32.000000	n/a	0	0	-2.304688e-01
315.487820	1.367696	dec_social_reject	1.367696	32.000000	n/a	0	0	-5.769231e-02
315.487820	1.367696	dec_reject	1.367696	32.000000	n/a	0	0	-5.528846e-02
315.487820	1.367696	dec_social_reject_low	1.367696	32.000000	n/a	2	-1.679688e-01	-2.304688e-01
322.321720	1.682917	dec_nonsocial_choice	1.682917	32.000000	n/a	8	1.822917e-02	1.822917e-02
322.321720	1.682917	dec_choice	1.682917	32.000000	n/a	8	1.692708e-02	1.692708e-02
322.321720	1.682917	dec_nonsocial_accept	1.682917	32.000000	n/a	8	-1.136364e-01	-1.136364e-01
322.321720	1.682917	dec_accept	1.682917	32.000000	n/a	8	-1.136364e-01	-1.136364e-01
322.321720	1.682917	dec_nonsocial_high	1.682917	32.000000	n/a	8	1.692708e-02	1.692708e-02
322.321720	1.682917	dec_nonsocial_accept_high	1.682917	32.000000	n/a	8	-1.136364e-01	-1.136364e-01
334.805800	1.899623	dec_nonsocial_choice	1.899623	32.000000	n/a	16	2.682292e-01	2.682292e-01
334.805800	1.899623	dec_choice	1.899623	32.000000	n/a	16	2.669271e-01	2.669271e-01
334.805800	1.899623	dec_nonsocial_accept	1.899623	32.000000	n/a	16	1.363636e-01	1.363636e-01
334.805800	1.899623	dec_accept	1.899623	32.000000	n/a	16	1.363636e-01	1.363636e-01
334.805800	1.899623	dec_nonsocial_accept_high	1.899623	32.000000	n/a	16	1.363636e-01	1.363636e-01
341.638820	1.799752	dec_social_choice	1.799752	16.000000	n/a	4	1.822917e-02	1.822917e-02
341.638820	1.799752	dec_choice	1.799752	16.000000	n/a	4	1.953125e-02	1.953125e-02
341.638820	1.799752	dec_social_accept	1.799752	16.000000	n/a	4	-1.136364e-01	-1.136364e-01
341.638820	1.799752	dec_accept	1.799752	16.000000	n/a	4	-1.136364e-01	-1.136364e-01
341.638820	1.799752	dec_social_high	1.799752	16.000000	n/a	4	1.953125e-02	1.953125e-02
341.638820	1.799752	dec_social_accept_high	1.799752	16.000000	n/a	4	1.953125e-02	1.953125e-02
348.471740	1.266353	dec_nonsocial_choice	1.266353	16.000000	n/a	0	0	-2.317708e-01
348.471740	1.266353	dec_choice	1.266353	16.000000	n/a	0	0	-2.330729e-01
348.471740	1.266353	dec_nonsocial_reject	1.266353	16.000000	n/a	0	0	-5.769231e-02
348.471740	1.266353	dec_reject	1.266353	16.000000	n/a	0	0	-6.009615e-02
348.471740	1.266353	dec_nonsocial_reject_low	1.266353	16.000000	n/a	1	-5.528846e-02	-1.177885e-01
356.121460	1.766344	dec_nonsocial_choice	1.766344	16.000000	n/a	0	0	-2.317708e-01
356.121460	1.766344	dec_choice	1.766344	16.000000	n/a	0	0	-2.330729e-01
356.121460	1.766344	dec_nonsocial_reject	1.766344	16.000000	n/a	0	0	-5.769231e-02
356.121460	1.766344	dec_reject	1.766344	16.000000	n/a	0	0	-6.009615e-02
356.121460	1.766344	dec_nonsocial_reject_low	1.766344	16.000000	n/a	1	-5.528846e-02	-1.177885e-01
363.771270	1.200527	dec_nonsocial_choice	1.200527	32.000000	n/a	8	1.822917e-02	1.822917e-02
363.771270	1.200527	dec_choice	1.200527	32.000000	n/a	8	1.692708e-02	1.692708e-02
363.771270	1.200527	dec_nonsocial_accept	1.200527	32.000000	n/a	8	-1.136364e-01	-1.136364e-01
363.771270	1.200527	dec_accept	1.200527	32.000000	n/a	8	-1.136364e-01	-1.136364e-01
363.771270	1.200527	dec_nonsocial_high	1.200527	32.000000	n/a	8	1.692708e-02	1.692708e-02
363.771270	1.200527	dec_nonsocial_accept_high	1.200527	32.000000	n/a	8	-1.136364e-01	-1.136364e-01
373.021900	1.599768	dec_nonsocial_choice	1.599768	16.000000	n/a	4	1.822917e-02	1.822917e-02
373.021900	1.599768	dec_choice	1.599768	16.000000	n/a	4	1.692708e-02	1.692708e-02
373.021900	1.599768	dec_nonsocial_accept	1.599768	16.000000	n/a	4	-1.136364e-01	-1.136364e-01
373.021900	1.599768	dec_accept	1.599768	16.000000	n/a	4	-1.136364e-01	-1.136364e-01
373.021900	1.599768	dec_nonsocial_high	1.599768	16.000000	n/a	4	1.692708e-02	1.692708e-02
373.021900	1.599768	dec_nonsocial_accept_high	1.599768	16.000000	n/a	4	-1.136364e-01	-1.136364e-01
