onset	duration	trial_type	response_time	Endowment	Endowment_pmod	Decision	Decision_pmod	Offer_pmod
4.586747	2	cue_social	n/a	32	13	n/a	n/a	n/a
4.586747	2	cue_social_high	n/a	32	9	n/a	n/a	n/a
11.362664	2	cue_nonsocial	n/a	16	-7	n/a	n/a	n/a
11.362664	2	cue_nonsocial_low	n/a	16	-3	n/a	n/a	n/a
18.337744	2	cue_social	n/a	16	-3	n/a	n/a	n/a
18.337744	2	cue_social_low	n/a	16	-7	n/a	n/a	n/a
25.968693	2	cue_social	n/a	16	-3	n/a	n/a	n/a
25.968693	2	cue_social_low	n/a	16	-7	n/a	n/a	n/a
32.825120	2	cue_social	n/a	16	-3	n/a	n/a	n/a
32.825120	2	cue_social_low	n/a	16	-7	n/a	n/a	n/a
39.546825	2	cue_nonsocial	n/a	16	-7	n/a	n/a	n/a
39.546825	2	cue_nonsocial_low	n/a	16	-3	n/a	n/a	n/a
47.252495	2	cue_social	n/a	16	-3	n/a	n/a	n/a
47.252495	2	cue_social_low	n/a	16	-7	n/a	n/a	n/a
54.846622	2	cue_nonsocial	n/a	32	9	n/a	n/a	n/a
54.846622	2	cue_nonsocial_high	n/a	32	13	n/a	n/a	n/a
64.112600	2	cue_nonsocial	n/a	32	9	n/a	n/a	n/a
64.112600	2	cue_nonsocial_high	n/a	32	13	n/a	n/a	n/a
71.043396	2	cue_social	n/a	16	-3	n/a	n/a	n/a
71.043396	2	cue_social_low	n/a	16	-7	n/a	n/a	n/a
80.306305	2	cue_social	n/a	32	13	n/a	n/a	n/a
80.306305	2	cue_social_high	n/a	32	9	n/a	n/a	n/a
87.931340	2	cue_social	n/a	16	-3	n/a	n/a	n/a
87.931340	2	cue_social_low	n/a	16	-7	n/a	n/a	n/a
94.696400	2	cue_nonsocial	n/a	16	-7	n/a	n/a	n/a
94.696400	2	cue_nonsocial_low	n/a	16	-3	n/a	n/a	n/a
102.345770	2	cue_nonsocial	n/a	16	-7	n/a	n/a	n/a
102.345770	2	cue_nonsocial_low	n/a	16	-3	n/a	n/a	n/a
111.690200	2	cue_social	n/a	32	13	n/a	n/a	n/a
111.690200	2	cue_social_high	n/a	32	9	n/a	n/a	n/a
118.528940	2	cue_social	n/a	16	-3	n/a	n/a	n/a
118.528940	2	cue_social_low	n/a	16	-7	n/a	n/a	n/a
125.262740	2	cue_nonsocial	n/a	16	-7	n/a	n/a	n/a
125.262740	2	cue_nonsocial_low	n/a	16	-3	n/a	n/a	n/a
132.912660	2	cue_nonsocial	n/a	32	9	n/a	n/a	n/a
132.912660	2	cue_nonsocial_high	n/a	32	13	n/a	n/a	n/a
139.745760	2	cue_nonsocial	n/a	32	9	n/a	n/a	n/a
139.745760	2	cue_nonsocial_high	n/a	32	13	n/a	n/a	n/a
147.478850	2	cue_social	n/a	16	-3	n/a	n/a	n/a
147.478850	2	cue_social_low	n/a	16	-7	n/a	n/a	n/a
156.646070	2	cue_nonsocial	n/a	16	-7	n/a	n/a	n/a
156.646070	2	cue_nonsocial_low	n/a	16	-3	n/a	n/a	n/a
164.354660	2	cue_social	n/a	16	-3	n/a	n/a	n/a
164.354660	2	cue_social_low	n/a	16	-7	n/a	n/a	n/a
171.129230	2	cue_nonsocial	n/a	16	-7	n/a	n/a	n/a
171.129230	2	cue_nonsocial_low	n/a	16	-3	n/a	n/a	n/a
178.871600	2	cue_social	n/a	16	-3	n/a	n/a	n/a
178.871600	2	cue_social_low	n/a	16	-7	n/a	n/a	n/a
185.612490	2	cue_nonsocial	n/a	16	-7	n/a	n/a	n/a
185.612490	2	cue_nonsocial_low	n/a	16	-3	n/a	n/a	n/a
192.446030	2	cue_nonsocial	n/a	32	9	n/a	n/a	n/a
192.446030	2	cue_nonsocial_high	n/a	32	13	n/a	n/a	n/a
204.929210	2	cue_nonsocial	n/a	16	-7	n/a	n/a	n/a
204.929210	2	cue_nonsocial_low	n/a	16	-3	n/a	n/a	n/a
211.762710	2	cue_nonsocial	n/a	16	-7	n/a	n/a	n/a
211.762710	2	cue_nonsocial_low	n/a	16	-3	n/a	n/a	n/a
218.674000	2	cue_social	n/a	16	-3	n/a	n/a	n/a
218.674000	2	cue_social_low	n/a	16	-7	n/a	n/a	n/a
227.845930	2	cue_nonsocial	n/a	32	9	n/a	n/a	n/a
227.845930	2	cue_nonsocial_high	n/a	32	13	n/a	n/a	n/a
237.191120	2	cue_social	n/a	16	-3	n/a	n/a	n/a
237.191120	2	cue_social_low	n/a	16	-7	n/a	n/a	n/a
244.821470	2	cue_social	n/a	32	13	n/a	n/a	n/a
244.821470	2	cue_social_high	n/a	32	9	n/a	n/a	n/a
251.563030	2	cue_nonsocial	n/a	32	9	n/a	n/a	n/a
251.563030	2	cue_nonsocial_high	n/a	32	13	n/a	n/a	n/a
258.469480	2	cue_social	n/a	16	-3	n/a	n/a	n/a
258.469480	2	cue_social_low	n/a	16	-7	n/a	n/a	n/a
269.353550	2	cue_social	n/a	16	-3	n/a	n/a	n/a
269.353550	2	cue_social_low	n/a	16	-7	n/a	n/a	n/a
276.949220	2	cue_social	n/a	16	-3	n/a	n/a	n/a
276.949220	2	cue_social_low	n/a	16	-7	n/a	n/a	n/a
283.746120	2	cue_nonsocial	n/a	16	-7	n/a	n/a	n/a
283.746120	2	cue_nonsocial_low	n/a	16	-3	n/a	n/a	n/a
291.464500	2	cue_social	n/a	16	-3	n/a	n/a	n/a
291.464500	2	cue_social_low	n/a	16	-7	n/a	n/a	n/a
299.045400	2	cue_nonsocial	n/a	32	9	n/a	n/a	n/a
299.045400	2	cue_nonsocial_high	n/a	32	13	n/a	n/a	n/a
305.879240	2	cue_nonsocial	n/a	16	-7	n/a	n/a	n/a
305.879240	2	cue_nonsocial_low	n/a	16	-3	n/a	n/a	n/a
312.712280	2	cue_nonsocial	n/a	16	-7	n/a	n/a	n/a
312.712280	2	cue_nonsocial_low	n/a	16	-3	n/a	n/a	n/a
323.626900	2	cue_social	n/a	16	-3	n/a	n/a	n/a
323.626900	2	cue_social_low	n/a	16	-7	n/a	n/a	n/a
334.445830	2	cue_nonsocial	n/a	32	9	n/a	n/a	n/a
334.445830	2	cue_nonsocial_high	n/a	32	13	n/a	n/a	n/a
341.361700	2	cue_social	n/a	16	-3	n/a	n/a	n/a
341.361700	2	cue_social_low	n/a	16	-7	n/a	n/a	n/a
348.201020	2	cue_social	n/a	32	13	n/a	n/a	n/a
348.201020	2	cue_social_high	n/a	32	9	n/a	n/a	n/a
354.945980	2	cue_nonsocial	n/a	32	9	n/a	n/a	n/a
354.945980	2	cue_nonsocial_high	n/a	32	13	n/a	n/a	n/a
364.278320	2	cue_social	n/a	16	-3	n/a	n/a	n/a
364.278320	2	cue_social_low	n/a	16	-7	n/a	n/a	n/a
371.046000	2	cue_nonsocial	n/a	32	9	n/a	n/a	n/a
371.046000	2	cue_nonsocial_high	n/a	32	13	n/a	n/a	n/a
6.518480	3.766946	missed_trial	3.766946	32.000000	n/a	n/a	n/a	n/a
13.369454	3.766946	missed_trial	3.766946	16.000000	n/a	n/a	n/a	n/a
20.219013	3.766946	missed_trial	3.766946	16.000000	n/a	n/a	n/a	n/a
27.869795	3.766946	missed_trial	3.766946	16.000000	n/a	n/a	n/a	n/a
34.717960	3.766946	missed_trial	3.766946	16.000000	n/a	n/a	n/a	n/a
41.552025	1.599982	dec_nonsocial_choice	1.599982	16.000000	n/a	1	-1.722384e-01	-1.722384e-01
41.552025	1.599982	dec_choice	1.599982	16.000000	n/a	1	-1.725543e-01	-1.725543e-01
41.552025	1.599982	dec_nonsocial_accept	1.599982	16.000000	n/a	1	-2.741477e-01	-2.741477e-01
41.552025	1.599982	dec_accept	1.599982	16.000000	n/a	1	-2.421875e-01	-2.421875e-01
41.552025	1.599982	dec_nonsocial_low	1.599982	16.000000	n/a	1	-1.725543e-01	-1.725543e-01
41.552025	1.599982	dec_nonsocial_accept_low	1.599982	16.000000	n/a	1	-2.421875e-01	-2.421875e-01
49.201897	1.149806	dec_social_choice	1.149806	16.000000	n/a	0	0	-2.347384e-01
49.201897	1.149806	dec_choice	1.149806	16.000000	n/a	0	0	-2.343750e-01
49.201897	1.149806	dec_social_reject	1.149806	16.000000	n/a	0	0	-2.976190e-03
49.201897	1.149806	dec_reject	1.149806	16.000000	n/a	0	0	3.125000e-02
49.201897	1.149806	dec_social_reject_low	1.149806	16.000000	n/a	2	-1.093750e-01	-2.343750e-01
56.852478	1.265720	dec_nonsocial_choice	1.265720	32.000000	n/a	16	2.652616e-01	2.652616e-01
56.852478	1.265720	dec_choice	1.265720	32.000000	n/a	16	2.649457e-01	2.649457e-01
56.852478	1.265720	dec_nonsocial_accept	1.265720	32.000000	n/a	16	1.633523e-01	1.633523e-01
56.852478	1.265720	dec_accept	1.265720	32.000000	n/a	16	1.953125e-01	1.953125e-01
56.852478	1.265720	dec_nonsocial_high	1.265720	32.000000	n/a	16	2.649457e-01	2.649457e-01
56.852478	1.265720	dec_nonsocial_accept_high	1.265720	32.000000	n/a	16	1.953125e-01	1.953125e-01
66.117840	1.550758	dec_nonsocial_choice	1.550758	32.000000	n/a	3	-1.409884e-01	-1.409884e-01
66.117840	1.550758	dec_choice	1.550758	32.000000	n/a	3	-1.413043e-01	-1.413043e-01
66.117840	1.550758	dec_nonsocial_accept	1.550758	32.000000	n/a	3	-2.428977e-01	-2.428977e-01
66.117840	1.550758	dec_accept	1.550758	32.000000	n/a	3	-2.109375e-01	-2.109375e-01
66.117840	1.550758	dec_nonsocial_low	1.550758	32.000000	n/a	3	-1.413043e-01	-1.413043e-01
66.117840	1.550758	dec_nonsocial_accept_low	1.550758	32.000000	n/a	3	-2.109375e-01	-2.109375e-01
72.952120	1.233493	dec_social_choice	1.233493	16.000000	n/a	0	0	-2.347384e-01
72.952120	1.233493	dec_choice	1.233493	16.000000	n/a	0	0	-2.343750e-01
72.952120	1.233493	dec_social_reject	1.233493	16.000000	n/a	0	0	-2.976190e-03
72.952120	1.233493	dec_reject	1.233493	16.000000	n/a	0	0	3.125000e-02
72.952120	1.233493	dec_social_reject_low	1.233493	16.000000	n/a	2	-1.093750e-01	-2.343750e-01
82.218810	1.165795	dec_social_choice	1.165795	32.000000	n/a	0	0	-2.347384e-01
82.218810	1.165795	dec_choice	1.165795	32.000000	n/a	0	0	-2.343750e-01
82.218810	1.165795	dec_social_reject	1.165795	32.000000	n/a	0	0	-6.547619e-02
82.218810	1.165795	dec_reject	1.165795	32.000000	n/a	0	0	-3.125000e-02
82.218810	1.165795	dec_social_reject_low	1.165795	32.000000	n/a	2	-1.718750e-01	-2.343750e-01
89.868805	1.549776	dec_social_choice	1.549776	16.000000	n/a	0	0	-2.347384e-01
89.868805	1.549776	dec_choice	1.549776	16.000000	n/a	0	0	-2.343750e-01
89.868805	1.549776	dec_social_reject	1.549776	16.000000	n/a	0	0	-6.547619e-02
89.868805	1.549776	dec_reject	1.549776	16.000000	n/a	0	0	-3.125000e-02
89.868805	1.549776	dec_social_low	1.549776	16.000000	n/a	0	-2.343750e-01	-2.343750e-01
89.868805	1.549776	dec_social_reject_low	1.549776	16.000000	n/a	1	-1.718750e-01	-2.343750e-01
96.702770	1.415578	dec_nonsocial_choice	1.415578	16.000000	n/a	0	0	-2.347384e-01
96.702770	1.415578	dec_choice	1.415578	16.000000	n/a	0	0	-2.350543e-01
96.702770	1.415578	dec_nonsocial_reject	1.415578	16.000000	n/a	0	0	-2.976190e-03
96.702770	1.415578	dec_reject	1.415578	16.000000	n/a	0	0	-3.409091e-02
96.702770	1.415578	dec_nonsocial_reject_low	1.415578	16.000000	n/a	2	3.125000e-02	-9.375000e-02
104.351960	1.599851	dec_nonsocial_choice	1.599851	16.000000	n/a	8	2.652616e-01	2.652616e-01
104.351960	1.599851	dec_choice	1.599851	16.000000	n/a	8	2.649457e-01	2.649457e-01
104.351960	1.599851	dec_nonsocial_accept	1.599851	16.000000	n/a	8	1.633523e-01	1.633523e-01
104.351960	1.599851	dec_accept	1.599851	16.000000	n/a	8	1.953125e-01	1.953125e-01
104.351960	1.599851	dec_nonsocial_high	1.599851	16.000000	n/a	8	2.649457e-01	2.649457e-01
104.351960	1.599851	dec_nonsocial_accept_high	1.599851	16.000000	n/a	8	1.953125e-01	1.953125e-01
113.601920	1.215904	dec_social_choice	1.215904	32.000000	n/a	16	2.652616e-01	2.652616e-01
113.601920	1.215904	dec_choice	1.215904	32.000000	n/a	16	2.656250e-01	2.656250e-01
113.601920	1.215904	dec_social_accept	1.215904	32.000000	n/a	16	1.633523e-01	1.633523e-01
113.601920	1.215904	dec_accept	1.215904	32.000000	n/a	16	1.250000e-01	1.250000e-01
113.601920	1.215904	dec_social_high	1.215904	32.000000	n/a	16	2.656250e-01	2.656250e-01
113.601920	1.215904	dec_social_accept_high	1.215904	32.000000	n/a	16	2.656250e-01	2.656250e-01
120.434494	1.033903	dec_social_choice	1.033903	16.000000	n/a	8	2.652616e-01	2.652616e-01
120.434494	1.033903	dec_choice	1.033903	16.000000	n/a	8	2.656250e-01	2.656250e-01
120.434494	1.033903	dec_social_accept	1.033903	16.000000	n/a	8	1.633523e-01	1.633523e-01
120.434494	1.033903	dec_accept	1.033903	16.000000	n/a	8	1.250000e-01	1.250000e-01
120.434494	1.033903	dec_social_high	1.033903	16.000000	n/a	8	2.656250e-01	2.656250e-01
120.434494	1.033903	dec_social_accept_high	1.033903	16.000000	n/a	8	2.656250e-01	2.656250e-01
127.269090	1.115617	dec_nonsocial_choice	1.115617	16.000000	n/a	0	0	-2.347384e-01
127.269090	1.115617	dec_choice	1.115617	16.000000	n/a	0	0	-2.350543e-01
127.269090	1.115617	dec_nonsocial_reject	1.115617	16.000000	n/a	0	0	-6.547619e-02
127.269090	1.115617	dec_reject	1.115617	16.000000	n/a	0	0	-9.659091e-02
127.269090	1.115617	dec_nonsocial_reject_low	1.115617	16.000000	n/a	1	-3.125000e-02	-9.375000e-02
134.918840	1.065544	dec_nonsocial_choice	1.065544	32.000000	n/a	0	0	-2.347384e-01
134.918840	1.065544	dec_choice	1.065544	32.000000	n/a	0	0	-2.350543e-01
134.918840	1.065544	dec_nonsocial_reject	1.065544	32.000000	n/a	0	0	3.720238e-01
134.918840	1.065544	dec_reject	1.065544	32.000000	n/a	0	0	3.409091e-01
134.918840	1.065544	dec_nonsocial_low	1.065544	32.000000	n/a	0	-2.350543e-01	-2.350543e-01
134.918840	1.065544	dec_nonsocial_reject_low	1.065544	32.000000	n/a	16	3.409091e-01	-1.590909e-01
141.751680	1.483518	dec_nonsocial_choice	1.483518	32.000000	n/a	8	1.526163e-02	1.526163e-02
141.751680	1.483518	dec_choice	1.483518	32.000000	n/a	8	1.494565e-02	1.494565e-02
141.751680	1.483518	dec_nonsocial_accept	1.483518	32.000000	n/a	8	-8.664773e-02	-8.664773e-02
141.751680	1.483518	dec_accept	1.483518	32.000000	n/a	8	-5.468750e-02	-5.468750e-02
141.751680	1.483518	dec_nonsocial_high	1.483518	32.000000	n/a	8	1.494565e-02	1.494565e-02
141.751680	1.483518	dec_nonsocial_accept_high	1.483518	32.000000	n/a	8	-5.468750e-02	-5.468750e-02
149.400920	1.600641	dec_social_choice	1.600641	16.000000	n/a	8	2.652616e-01	2.652616e-01
149.400920	1.600641	dec_choice	1.600641	16.000000	n/a	8	2.656250e-01	2.656250e-01
149.400920	1.600641	dec_social_accept	1.600641	16.000000	n/a	8	1.633523e-01	1.633523e-01
149.400920	1.600641	dec_accept	1.600641	16.000000	n/a	8	1.250000e-01	1.250000e-01
149.400920	1.600641	dec_social_accept_high	1.600641	16.000000	n/a	8	2.656250e-01	2.656250e-01
158.651840	1.749891	dec_nonsocial_choice	1.749891	16.000000	n/a	0	0	-2.347384e-01
158.651840	1.749891	dec_choice	1.749891	16.000000	n/a	0	0	-2.350543e-01
158.651840	1.749891	dec_nonsocial_reject	1.749891	16.000000	n/a	0	0	-2.976190e-03
158.651840	1.749891	dec_reject	1.749891	16.000000	n/a	0	0	-3.409091e-02
158.651840	1.749891	dec_nonsocial_reject_low	1.749891	16.000000	n/a	2	3.125000e-02	-9.375000e-02
166.301860	1.382682	dec_social_choice	1.382682	16.000000	n/a	8	2.652616e-01	2.652616e-01
166.301860	1.382682	dec_choice	1.382682	16.000000	n/a	8	2.656250e-01	2.656250e-01
166.301860	1.382682	dec_social_accept	1.382682	16.000000	n/a	8	1.633523e-01	1.633523e-01
166.301860	1.382682	dec_accept	1.382682	16.000000	n/a	8	1.250000e-01	1.250000e-01
166.301860	1.382682	dec_social_high	1.382682	16.000000	n/a	8	2.656250e-01	2.656250e-01
166.301860	1.382682	dec_social_accept_high	1.382682	16.000000	n/a	8	2.656250e-01	2.656250e-01
173.134980	1.866533	dec_nonsocial_choice	1.866533	16.000000	n/a	4	1.526163e-02	1.526163e-02
173.134980	1.866533	dec_choice	1.866533	16.000000	n/a	4	1.494565e-02	1.494565e-02
173.134980	1.866533	dec_nonsocial_accept	1.866533	16.000000	n/a	4	-8.664773e-02	-8.664773e-02
173.134980	1.866533	dec_accept	1.866533	16.000000	n/a	4	-5.468750e-02	-5.468750e-02
173.134980	1.866533	dec_nonsocial_accept_high	1.866533	16.000000	n/a	4	-1.250000e-01	-1.250000e-01
180.785580	1.732156	dec_social_choice	1.732156	16.000000	n/a	0	0	-2.347384e-01
180.785580	1.732156	dec_choice	1.732156	16.000000	n/a	0	0	-2.343750e-01
180.785580	1.732156	dec_social_reject	1.732156	16.000000	n/a	0	0	-2.976190e-03
180.785580	1.732156	dec_reject	1.732156	16.000000	n/a	0	0	3.125000e-02
180.785580	1.732156	dec_social_reject_low	1.732156	16.000000	n/a	2	-1.093750e-01	-2.343750e-01
187.618840	1.449528	dec_nonsocial_choice	1.449528	16.000000	n/a	4	1.526163e-02	1.526163e-02
187.618840	1.449528	dec_choice	1.449528	16.000000	n/a	4	1.494565e-02	1.494565e-02
187.618840	1.449528	dec_nonsocial_accept	1.449528	16.000000	n/a	4	-8.664773e-02	-8.664773e-02
187.618840	1.449528	dec_accept	1.449528	16.000000	n/a	4	-5.468750e-02	-5.468750e-02
187.618840	1.449528	dec_nonsocial_accept_high	1.449528	16.000000	n/a	4	-1.250000e-01	-1.250000e-01
194.451540	1.983337	dec_nonsocial_choice	1.983337	32.000000	n/a	0	0	-2.347384e-01
194.451540	1.983337	dec_choice	1.983337	32.000000	n/a	0	0	-2.350543e-01
194.451540	1.983337	dec_nonsocial_reject	1.983337	32.000000	n/a	0	0	-3.422619e-02
194.451540	1.983337	dec_reject	1.983337	32.000000	n/a	0	0	-6.534091e-02
194.451540	1.983337	dec_nonsocial_reject_low	1.983337	32.000000	n/a	3	0	-9.375000e-02
206.935380	1.365863	dec_nonsocial_choice	1.365863	16.000000	n/a	4	1.526163e-02	1.526163e-02
206.935380	1.365863	dec_choice	1.365863	16.000000	n/a	4	1.494565e-02	1.494565e-02
206.935380	1.365863	dec_nonsocial_accept	1.365863	16.000000	n/a	4	-8.664773e-02	-8.664773e-02
206.935380	1.365863	dec_accept	1.365863	16.000000	n/a	4	-5.468750e-02	-5.468750e-02
206.935380	1.365863	dec_nonsocial_high	1.365863	16.000000	n/a	4	1.494565e-02	1.494565e-02
206.935380	1.365863	dec_nonsocial_accept_high	1.365863	16.000000	n/a	4	-5.468750e-02	-5.468750e-02
213.767930	1.400610	dec_nonsocial_choice	1.400610	16.000000	n/a	0	0	-2.347384e-01
213.767930	1.400610	dec_choice	1.400610	16.000000	n/a	0	0	-2.350543e-01
213.767930	1.400610	dec_nonsocial_reject	1.400610	16.000000	n/a	0	0	-6.547619e-02
213.767930	1.400610	dec_reject	1.400610	16.000000	n/a	0	0	-9.659091e-02
213.767930	1.400610	dec_nonsocial_reject_low	1.400610	16.000000	n/a	1	-3.125000e-02	-9.375000e-02
220.601180	1.817331	dec_social_choice	1.817331	16.000000	n/a	0	0	-2.347384e-01
220.601180	1.817331	dec_choice	1.817331	16.000000	n/a	0	0	-2.343750e-01
220.601180	1.817331	dec_social_reject	1.817331	16.000000	n/a	0	0	-2.976190e-03
220.601180	1.817331	dec_reject	1.817331	16.000000	n/a	0	0	3.125000e-02
220.601180	1.817331	dec_social_low	1.817331	16.000000	n/a	0	-2.343750e-01	-2.343750e-01
220.601180	1.817331	dec_social_reject_low	1.817331	16.000000	n/a	2	-1.093750e-01	-2.343750e-01
229.851930	1.432597	dec_nonsocial_choice	1.432597	32.000000	n/a	16	2.652616e-01	2.652616e-01
229.851930	1.432597	dec_choice	1.432597	32.000000	n/a	16	2.649457e-01	2.649457e-01
229.851930	1.432597	dec_nonsocial_accept	1.432597	32.000000	n/a	16	1.633523e-01	1.633523e-01
229.851930	1.432597	dec_accept	1.432597	32.000000	n/a	16	1.953125e-01	1.953125e-01
229.851930	1.432597	dec_nonsocial_high	1.432597	32.000000	n/a	16	2.649457e-01	2.649457e-01
229.851930	1.432597	dec_nonsocial_accept_high	1.432597	32.000000	n/a	16	1.953125e-01	1.953125e-01
239.101440	1.500422	dec_social_choice	1.500422	16.000000	n/a	0	0	-2.347384e-01
239.101440	1.500422	dec_choice	1.500422	16.000000	n/a	0	0	-2.343750e-01
239.101440	1.500422	dec_social_reject	1.500422	16.000000	n/a	0	0	-2.976190e-03
239.101440	1.500422	dec_reject	1.500422	16.000000	n/a	0	0	3.125000e-02
239.101440	1.500422	dec_social_low	1.500422	16.000000	n/a	0	-2.343750e-01	-2.343750e-01
239.101440	1.500422	dec_social_reject_low	1.500422	16.000000	n/a	2	-1.093750e-01	-2.343750e-01
246.734970	1.249996	dec_social_choice	1.249996	32.000000	n/a	16	2.652616e-01	2.652616e-01
246.734970	1.249996	dec_choice	1.249996	32.000000	n/a	16	2.656250e-01	2.656250e-01
246.734970	1.249996	dec_social_accept	1.249996	32.000000	n/a	16	1.633523e-01	1.633523e-01
246.734970	1.249996	dec_accept	1.249996	32.000000	n/a	16	1.250000e-01	1.250000e-01
246.734970	1.249996	dec_social_accept_high	1.249996	32.000000	n/a	16	2.656250e-01	2.656250e-01
253.567890	1.333593	dec_nonsocial_choice	1.333593	32.000000	n/a	0	0	-2.347384e-01
253.567890	1.333593	dec_choice	1.333593	32.000000	n/a	0	0	-2.350543e-01
253.567890	1.333593	dec_nonsocial_reject	1.333593	32.000000	n/a	0	0	-6.547619e-02
253.567890	1.333593	dec_reject	1.333593	32.000000	n/a	0	0	-9.659091e-02
253.567890	1.333593	dec_nonsocial_reject_low	1.333593	32.000000	n/a	2	-3.125000e-02	-9.375000e-02
260.401920	1.349584	dec_social_choice	1.349584	16.000000	n/a	4	1.526163e-02	1.526163e-02
260.401920	1.349584	dec_choice	1.349584	16.000000	n/a	4	1.562500e-02	1.562500e-02
260.401920	1.349584	dec_social_accept	1.349584	16.000000	n/a	4	-8.664773e-02	-8.664773e-02
260.401920	1.349584	dec_accept	1.349584	16.000000	n/a	4	-1.250000e-01	-1.250000e-01
260.401920	1.349584	dec_social_accept_high	1.349584	16.000000	n/a	4	1.562500e-02	1.562500e-02
271.268800	1.382994	dec_social_choice	1.382994	16.000000	n/a	0	0	-2.347384e-01
271.268800	1.382994	dec_choice	1.382994	16.000000	n/a	0	0	-2.343750e-01
271.268800	1.382994	dec_social_reject	1.382994	16.000000	n/a	0	0	-6.547619e-02
271.268800	1.382994	dec_reject	1.382994	16.000000	n/a	0	0	-3.125000e-02
271.268800	1.382994	dec_social_reject_low	1.382994	16.000000	n/a	1	-1.718750e-01	-2.343750e-01
278.917020	1.851008	dec_social_choice	1.851008	16.000000	n/a	4	1.526163e-02	1.526163e-02
278.917020	1.851008	dec_choice	1.851008	16.000000	n/a	4	1.562500e-02	1.562500e-02
278.917020	1.851008	dec_social_accept	1.851008	16.000000	n/a	4	-8.664773e-02	-8.664773e-02
278.917020	1.851008	dec_accept	1.851008	16.000000	n/a	4	-1.250000e-01	-1.250000e-01
278.917020	1.851008	dec_social_high	1.851008	16.000000	n/a	4	1.562500e-02	1.562500e-02
278.917020	1.851008	dec_social_accept_high	1.851008	16.000000	n/a	4	1.562500e-02	1.562500e-02
285.751680	0.833156	dec_nonsocial_choice	0.833156	16.000000	n/a	0	0	-2.347384e-01
285.751680	0.833156	dec_choice	0.833156	16.000000	n/a	0	0	-2.350543e-01
285.751680	0.833156	dec_nonsocial_reject	0.833156	16.000000	n/a	0	0	-6.547619e-02
285.751680	0.833156	dec_reject	0.833156	16.000000	n/a	0	0	-9.659091e-02
285.751680	0.833156	dec_nonsocial_reject_low	0.833156	16.000000	n/a	1	-3.125000e-02	-9.375000e-02
293.401800	1.449633	dec_social_choice	1.449633	16.000000	n/a	4	1.526163e-02	1.526163e-02
293.401800	1.449633	dec_choice	1.449633	16.000000	n/a	4	1.562500e-02	1.562500e-02
293.401800	1.449633	dec_social_accept	1.449633	16.000000	n/a	4	-8.664773e-02	-8.664773e-02
293.401800	1.449633	dec_accept	1.449633	16.000000	n/a	4	-1.250000e-01	-1.250000e-01
293.401800	1.449633	dec_social_high	1.449633	16.000000	n/a	4	1.562500e-02	1.562500e-02
293.401800	1.449633	dec_social_accept_high	1.449633	16.000000	n/a	4	1.562500e-02	1.562500e-02
301.050930	1.216642	dec_nonsocial_choice	1.216642	32.000000	n/a	8	1.526163e-02	1.526163e-02
301.050930	1.216642	dec_choice	1.216642	32.000000	n/a	8	1.494565e-02	1.494565e-02
301.050930	1.216642	dec_nonsocial_accept	1.216642	32.000000	n/a	8	-8.664773e-02	-8.664773e-02
301.050930	1.216642	dec_accept	1.216642	32.000000	n/a	8	-5.468750e-02	-5.468750e-02
301.050930	1.216642	dec_nonsocial_accept_high	1.216642	32.000000	n/a	8	-1.250000e-01	-1.250000e-01
307.884550	1.250641	dec_nonsocial_choice	1.250641	16.000000	n/a	8	2.652616e-01	2.652616e-01
307.884550	1.250641	dec_choice	1.250641	16.000000	n/a	8	2.649457e-01	2.649457e-01
307.884550	1.250641	dec_nonsocial_accept	1.250641	16.000000	n/a	8	1.633523e-01	1.633523e-01
307.884550	1.250641	dec_accept	1.250641	16.000000	n/a	8	1.953125e-01	1.953125e-01
307.884550	1.250641	dec_nonsocial_high	1.250641	16.000000	n/a	8	2.649457e-01	2.649457e-01
307.884550	1.250641	dec_nonsocial_accept_high	1.250641	16.000000	n/a	8	1.953125e-01	1.953125e-01
314.717830	1.550417	dec_nonsocial_choice	1.550417	16.000000	n/a	0	0	-2.347384e-01
314.717830	1.550417	dec_choice	1.550417	16.000000	n/a	0	0	-2.350543e-01
314.717830	1.550417	dec_nonsocial_reject	1.550417	16.000000	n/a	0	0	-6.547619e-02
314.717830	1.550417	dec_reject	1.550417	16.000000	n/a	0	0	-9.659091e-02
314.717830	1.550417	dec_nonsocial_low	1.550417	16.000000	n/a	0	-2.350543e-01	-2.350543e-01
314.717830	1.550417	dec_nonsocial_reject_low	1.550417	16.000000	n/a	1	-9.659091e-02	-1.590909e-01
325.585500	1.482559	dec_social_choice	1.482559	16.000000	n/a	0	0	-2.347384e-01
325.585500	1.482559	dec_choice	1.482559	16.000000	n/a	0	0	-2.343750e-01
325.585500	1.482559	dec_social_reject	1.482559	16.000000	n/a	0	0	-6.547619e-02
325.585500	1.482559	dec_reject	1.482559	16.000000	n/a	0	0	-3.125000e-02
325.585500	1.482559	dec_social_low	1.482559	16.000000	n/a	0	-2.343750e-01	-2.343750e-01
325.585500	1.482559	dec_social_reject_low	1.482559	16.000000	n/a	1	-1.718750e-01	-2.343750e-01
336.451720	1.332901	dec_nonsocial_choice	1.332901	32.000000	n/a	0	0	-2.347384e-01
336.451720	1.332901	dec_choice	1.332901	32.000000	n/a	0	0	-2.350543e-01
336.451720	1.332901	dec_nonsocial_reject	1.332901	32.000000	n/a	0	0	3.720238e-01
336.451720	1.332901	dec_reject	1.332901	32.000000	n/a	0	0	3.409091e-01
336.451720	1.332901	dec_nonsocial_low	1.332901	32.000000	n/a	0	-2.350543e-01	-2.350543e-01
336.451720	1.332901	dec_nonsocial_reject_low	1.332901	32.000000	n/a	16	3.409091e-01	-1.590909e-01
343.283940	2.150758	dec_social_choice	2.150758	16.000000	n/a	4	1.526163e-02	1.526163e-02
343.283940	2.150758	dec_choice	2.150758	16.000000	n/a	4	1.562500e-02	1.562500e-02
343.283940	2.150758	dec_social_accept	2.150758	16.000000	n/a	4	-8.664773e-02	-8.664773e-02
343.283940	2.150758	dec_accept	2.150758	16.000000	n/a	4	-1.250000e-01	-1.250000e-01
343.283940	2.150758	dec_social_accept_high	2.150758	16.000000	n/a	4	1.562500e-02	1.562500e-02
350.117900	1.183412	dec_social_choice	1.183412	32.000000	n/a	0	0	-2.347384e-01
350.117900	1.183412	dec_choice	1.183412	32.000000	n/a	0	0	-2.343750e-01
350.117900	1.183412	dec_social_reject	1.183412	32.000000	n/a	0	0	-6.547619e-02
350.117900	1.183412	dec_reject	1.183412	32.000000	n/a	0	0	-3.125000e-02
350.117900	1.183412	dec_social_low	1.183412	32.000000	n/a	0	-2.343750e-01	-2.343750e-01
350.117900	1.183412	dec_social_reject_low	1.183412	32.000000	n/a	2	-1.718750e-01	-2.343750e-01
356.952060	1.682089	dec_nonsocial_choice	1.682089	32.000000	n/a	0	0	-2.347384e-01
356.952060	1.682089	dec_choice	1.682089	32.000000	n/a	0	0	-2.350543e-01
356.952060	1.682089	dec_nonsocial_reject	1.682089	32.000000	n/a	0	0	-3.422619e-02
356.952060	1.682089	dec_reject	1.682089	32.000000	n/a	0	0	-6.534091e-02
356.952060	1.682089	dec_nonsocial_reject_low	1.682089	32.000000	n/a	3	0	-9.375000e-02
366.218840	1.932461	dec_social_choice	1.932461	16.000000	n/a	4	1.526163e-02	1.526163e-02
366.218840	1.932461	dec_choice	1.932461	16.000000	n/a	4	1.562500e-02	1.562500e-02
366.218840	1.932461	dec_social_accept	1.932461	16.000000	n/a	4	-8.664773e-02	-8.664773e-02
366.218840	1.932461	dec_accept	1.932461	16.000000	n/a	4	-1.250000e-01	-1.250000e-01
366.218840	1.932461	dec_social_accept_high	1.932461	16.000000	n/a	4	1.562500e-02	1.562500e-02
373.051970	1.315432	dec_nonsocial_choice	1.315432	32.000000	n/a	8	1.526163e-02	1.526163e-02
373.051970	1.315432	dec_choice	1.315432	32.000000	n/a	8	1.494565e-02	1.494565e-02
373.051970	1.315432	dec_nonsocial_accept	1.315432	32.000000	n/a	8	-8.664773e-02	-8.664773e-02
373.051970	1.315432	dec_accept	1.315432	32.000000	n/a	8	-5.468750e-02	-5.468750e-02
373.051970	1.315432	dec_nonsocial_high	1.315432	32.000000	n/a	8	1.494565e-02	1.494565e-02
373.051970	1.315432	dec_nonsocial_accept_high	1.315432	32.000000	n/a	8	-5.468750e-02	-5.468750e-02
