onset	duration	trial_type	response_time	Endowment	Decision	Offer
4.515169	2	cue_nonsocial	n/a	32	n/a	n/a
4.515169	2	cue_nonsocial_high	n/a	32	n/a	n/a
6.520971	1.566496	dec_nonsocial_high	1.566496	32	n/a	3
6.520971	1.566496	dec_nonsocial_high_accept	1.566496	32	accept	3
11.348748	2	cue_nonsocial	n/a	16	n/a	n/a
11.348748	2	cue_nonsocial_low	n/a	16	n/a	n/a
13.354573	1.066104	dec_nonsocial_low	1.066104	16	n/a	8
13.354573	1.066104	dec_nonsocial_low_accept	1.066104	16	accept	8
18.181955	2	cue_nonsocial	n/a	16	n/a	n/a
18.181955	2	cue_nonsocial_low	n/a	16	n/a	n/a
20.188103	0.899878	dec_nonsocial_low	0.899878	16	n/a	4
20.188103	0.899878	dec_nonsocial_low_accept	0.899878	16	accept	4
30.745420	2	cue_social	n/a	16	n/a	n/a
30.745420	2	cue_social_low	n/a	16	n/a	n/a
32.670998	1.066911	dec_social_low	1.066911	16	n/a	4
32.670998	1.066911	dec_social_low_accept	1.066911	16	accept	4
37.593834	2	cue_social	n/a	32	n/a	n/a
37.593834	2	cue_social_high	n/a	32	n/a	n/a
39.504974	1.049661	dec_social_high	1.049661	32	n/a	16
39.504974	1.049661	dec_social_high_accept	1.049661	32	accept	16
44.331898	2	cue_nonsocial	n/a	32	n/a	n/a
44.331898	2	cue_nonsocial_high	n/a	32	n/a	n/a
46.338875	1.115158	dec_nonsocial_high	1.115158	32	n/a	2
46.338875	1.115158	dec_nonsocial_high_reject	1.115158	32	reject	2
51.982260	2	cue_nonsocial	n/a	16	n/a	n/a
51.982260	2	cue_nonsocial_low	n/a	16	n/a	n/a
53.987896	1.133225	dec_nonsocial_low	1.133225	16	n/a	8
53.987896	1.133225	dec_nonsocial_low_accept	1.133225	16	accept	8
58.815040	2	cue_nonsocial	n/a	32	n/a	n/a
58.815040	2	cue_nonsocial_high	n/a	32	n/a	n/a
60.821507	1.799615	dec_nonsocial_high	1.799615	32	n/a	2
60.821507	1.799615	dec_nonsocial_high_reject	1.799615	32	reject	2
68.065030	2	cue_nonsocial	n/a	32	n/a	n/a
68.065030	2	cue_nonsocial_high	n/a	32	n/a	n/a
70.071890	0.932664	dec_nonsocial_high	0.932664	32	n/a	2
70.071890	0.932664	dec_nonsocial_high_reject	0.932664	32	reject	2
75.773865	2	cue_social	n/a	32	n/a	n/a
75.773865	2	cue_social_high	n/a	32	n/a	n/a
77.720825	1.200343	dec_social_high	1.200343	32	n/a	3
77.720825	1.200343	dec_social_high_accept	1.200343	32	accept	3
83.412636	2	cue_social	n/a	16	n/a	n/a
83.412636	2	cue_social_low	n/a	16	n/a	n/a
85.354890	1.015564	dec_social_low	1.015564	16	n/a	4
85.354890	1.015564	dec_social_low_accept	1.015564	16	accept	4
90.998530	2	cue_nonsocial	n/a	16	n/a	n/a
90.998530	2	cue_nonsocial_low	n/a	16	n/a	n/a
93.004630	1.399761	dec_nonsocial_low	1.399761	16	n/a	1
93.004630	1.399761	dec_nonsocial_low_reject	1.399761	16	reject	1
97.886765	2	cue_social	n/a	32	n/a	n/a
97.886765	2	cue_social_high	n/a	32	n/a	n/a
99.838844	1.248956	dec_social_high	1.248956	32	n/a	3
99.838844	1.248956	dec_social_high_accept	1.248956	32	accept	3
105.482376	2	cue_nonsocial	n/a	32	n/a	n/a
105.482376	2	cue_nonsocial_high	n/a	32	n/a	n/a
107.487050	1.083920	dec_nonsocial_high	1.083920	32	n/a	2
107.487050	1.083920	dec_nonsocial_high_reject	1.083920	32	reject	2
112.380910	2	cue_social	n/a	32	n/a	n/a
112.380910	2	cue_social_high	n/a	32	n/a	n/a
114.320820	1.533507	dec_social_high	1.533507	32	n/a	2
114.320820	1.533507	dec_social_high_accept	1.533507	32	accept	2
123.181920	2	cue_nonsocial	n/a	16	n/a	n/a
123.181920	2	cue_nonsocial_low	n/a	16	n/a	n/a
125.188190	1.082420	dec_nonsocial_low	1.082420	16	n/a	1
125.188190	1.082420	dec_nonsocial_low_reject	1.082420	16	reject	1
132.491700	2	cue_social	n/a	32	n/a	n/a
132.491700	2	cue_social_high	n/a	32	n/a	n/a
134.437580	1.216140	dec_social_high	1.216140	32	n/a	3
134.437580	1.216140	dec_social_high_accept	1.216140	32	accept	3
139.265140	2	cue_nonsocial	n/a	32	n/a	n/a
139.265140	2	cue_nonsocial_high	n/a	32	n/a	n/a
141.270970	1.600209	dec_nonsocial_high	1.600209	32	n/a	3
141.270970	1.600209	dec_nonsocial_high_reject	1.600209	32	reject	3
146.915240	2	cue_nonsocial	n/a	32	n/a	n/a
146.915240	2	cue_nonsocial_high	n/a	32	n/a	n/a
148.921720	0.932588	dec_nonsocial_high	0.932588	32	n/a	16
148.921720	0.932588	dec_nonsocial_high_accept	0.932588	32	accept	16
153.748550	2	cue_nonsocial	n/a	16	n/a	n/a
153.748550	2	cue_nonsocial_low	n/a	16	n/a	n/a
155.753920	1.800565	dec_nonsocial_low	1.800565	16	n/a	2
155.753920	1.800565	dec_nonsocial_low_accept	1.800565	16	accept	2
160.582320	2	cue_nonsocial	n/a	32	n/a	n/a
160.582320	2	cue_nonsocial_high	n/a	32	n/a	n/a
162.588260	0.999752	dec_nonsocial_high	0.999752	32	n/a	16
162.588260	0.999752	dec_nonsocial_high_accept	0.999752	32	accept	16
168.289120	2	cue_social	n/a	16	n/a	n/a
168.289120	2	cue_social_low	n/a	16	n/a	n/a
170.237850	1.283044	dec_social_low	1.283044	16	n/a	8
170.237850	1.283044	dec_social_low_accept	1.283044	16	accept	8
179.098510	2	cue_nonsocial	n/a	32	n/a	n/a
179.098510	2	cue_nonsocial_high	n/a	32	n/a	n/a
181.104460	1.099795	dec_nonsocial_high	1.099795	32	n/a	3
181.104460	1.099795	dec_nonsocial_high_reject	1.099795	32	reject	3
185.992610	2	cue_social	n/a	32	n/a	n/a
185.992610	2	cue_social_high	n/a	32	n/a	n/a
187.937850	1.199774	dec_social_high	1.199774	32	n/a	3
187.937850	1.199774	dec_social_high_accept	1.199774	32	accept	3
195.250020	2	cue_social	n/a	16	n/a	n/a
195.250020	2	cue_social_low	n/a	16	n/a	n/a
197.188520	1.298707	dec_social_low	1.298707	16	n/a	4
197.188520	1.298707	dec_social_low_accept	1.298707	16	accept	4
202.015010	2	cue_nonsocial	n/a	32	n/a	n/a
202.015010	2	cue_nonsocial_high	n/a	32	n/a	n/a
204.020700	1.782933	dec_nonsocial_high	1.782933	32	n/a	8
204.020700	1.782933	dec_nonsocial_high_accept	1.782933	32	accept	8
209.722640	2	cue_social	n/a	32	n/a	n/a
209.722640	2	cue_social_high	n/a	32	n/a	n/a
211.670270	2.416584	dec_social_high	2.416584	32	n/a	2
211.670270	2.416584	dec_social_high_accept	2.416584	32	accept	2
217.362780	2	cue_social	n/a	16	n/a	n/a
217.362780	2	cue_social_low	n/a	16	n/a	n/a
219.320890	1.299951	dec_social_low	1.299951	16	n/a	1
219.320890	1.299951	dec_social_low_reject	1.299951	16	reject	1
224.148010	2	cue_nonsocial	n/a	16	n/a	n/a
224.148010	2	cue_nonsocial_low	n/a	16	n/a	n/a
226.154250	1.483150	dec_nonsocial_low	1.483150	16	n/a	2
226.154250	1.483150	dec_nonsocial_low_accept	1.483150	16	accept	2
231.798280	2	cue_nonsocial	n/a	32	n/a	n/a
231.798280	2	cue_nonsocial_high	n/a	32	n/a	n/a
233.804430	1.133263	dec_nonsocial_high	1.133263	32	n/a	8
233.804430	1.133263	dec_nonsocial_high_accept	1.133263	32	accept	8
238.682020	2	cue_social	n/a	32	n/a	n/a
238.682020	2	cue_social_high	n/a	32	n/a	n/a
240.637440	1.066256	dec_social_high	1.066256	32	n/a	16
240.637440	1.066256	dec_social_high_accept	1.066256	32	accept	16
249.554410	2	cue_social	n/a	16	n/a	n/a
249.554410	2	cue_social_low	n/a	16	n/a	n/a
251.504170	1.266089	dec_social_low	1.266089	16	n/a	4
251.504170	1.266089	dec_social_low_accept	1.266089	16	accept	4
257.194460	2	cue_social	n/a	32	n/a	n/a
257.194460	2	cue_social_high	n/a	32	n/a	n/a
259.153900	0.949940	dec_social_high	0.949940	32	n/a	16
259.153900	0.949940	dec_social_high_accept	0.949940	32	accept	16
263.981260	2	cue_nonsocial	n/a	16	n/a	n/a
263.981260	2	cue_nonsocial_low	n/a	16	n/a	n/a
265.987120	1.266488	dec_nonsocial_low	1.266488	16	n/a	4
265.987120	1.266488	dec_nonsocial_low_accept	1.266488	16	accept	4
273.295530	2	cue_social	n/a	16	n/a	n/a
273.295530	2	cue_social_low	n/a	16	n/a	n/a
275.236540	1.167851	dec_social_low	1.167851	16	n/a	2
275.236540	1.167851	dec_social_low_accept	1.167851	16	accept	2
280.881470	2	cue_nonsocial	n/a	16	n/a	n/a
280.881470	2	cue_nonsocial_low	n/a	16	n/a	n/a
282.887600	1.233475	dec_nonsocial_low	1.233475	16	n/a	4
282.887600	1.233475	dec_nonsocial_low_accept	1.233475	16	accept	4
290.198640	2	cue_social	n/a	32	n/a	n/a
290.198640	2	cue_social_high	n/a	32	n/a	n/a
292.154750	1.232759	dec_social_high	1.232759	32	n/a	2
292.154750	1.232759	dec_social_high_reject	1.232759	32	reject	2
297.039500	2	cue_social	n/a	32	n/a	n/a
297.039500	2	cue_social_high	n/a	32	n/a	n/a
298.987850	1.149643	dec_social_high	1.149643	32	n/a	8
298.987850	1.149643	dec_social_high_accept	1.149643	32	accept	8
303.852420	2	cue_social	n/a	16	n/a	n/a
303.852420	2	cue_social_low	n/a	16	n/a	n/a
305.820860	1.050061	dec_social_low	1.050061	16	n/a	4
305.820860	1.050061	dec_social_low_accept	1.050061	16	accept	4
310.647670	2	cue_nonsocial	n/a	32	n/a	n/a
310.647670	2	cue_nonsocial_high	n/a	32	n/a	n/a
312.654700	1.332797	dec_nonsocial_high	1.332797	32	n/a	8
312.654700	1.332797	dec_nonsocial_high_accept	1.332797	32	accept	8
317.535220	2	cue_social	n/a	32	n/a	n/a
317.535220	2	cue_social_high	n/a	32	n/a	n/a
319.487700	1.282283	dec_social_high	1.282283	32	n/a	16
319.487700	1.282283	dec_social_high_accept	1.282283	32	accept	16
324.372400	2	cue_social	n/a	32	n/a	n/a
324.372400	2	cue_social_high	n/a	32	n/a	n/a
326.320900	1.199670	dec_social_high	1.199670	32	n/a	3
326.320900	1.199670	dec_social_high_accept	1.199670	32	accept	3
333.636200	2	cue_social	n/a	32	n/a	n/a
333.636200	2	cue_social_high	n/a	32	n/a	n/a
335.586730	1.050278	dec_social_high	1.050278	32	n/a	2
335.586730	1.050278	dec_social_high_reject	1.050278	32	reject	2
340.462200	2	cue_social	n/a	16	n/a	n/a
340.462200	2	cue_social_low	n/a	16	n/a	n/a
342.420560	0.999488	dec_social_low	0.999488	16	n/a	8
342.420560	0.999488	dec_social_low_accept	0.999488	16	accept	8
347.247620	2	cue_nonsocial	n/a	32	n/a	n/a
347.247620	2	cue_nonsocial_high	n/a	32	n/a	n/a
349.253800	2.416547	dec_nonsocial_high	2.416547	32	n/a	3
349.253800	2.416547	dec_nonsocial_high_reject	2.416547	32	reject	3
354.081120	2	cue_nonsocial	n/a	32	n/a	n/a
354.081120	2	cue_nonsocial_high	n/a	32	n/a	n/a
356.087500	1.099304	dec_nonsocial_high	1.099304	32	n/a	16
356.087500	1.099304	dec_nonsocial_high_accept	1.099304	32	accept	16
361.730900	2	cue_nonsocial	n/a	32	n/a	n/a
361.730900	2	cue_nonsocial_high	n/a	32	n/a	n/a
363.737180	0.850082	dec_nonsocial_high	0.850082	32	n/a	16
363.737180	0.850082	dec_nonsocial_high_accept	0.850082	32	accept	16
371.050480	2	cue_social	n/a	32	n/a	n/a
371.050480	2	cue_social_high	n/a	32	n/a	n/a
372.987800	1.749175	dec_social_high	1.749175	32	n/a	2
372.987800	1.749175	dec_social_high_reject	1.749175	32	reject	2
