onset	duration	trial_type	response_time	Endowment	Endowment_pmod	Decision	Decision_pmod	Offer_pmod
4.517588	2	cue_nonsocial	n/a	32	10	n/a	n/a	n/a
4.517588	2	cue_nonsocial_high	n/a	32	7	n/a	n/a	n/a
11.351039	2	cue_nonsocial	n/a	32	10	n/a	n/a	n/a
11.351039	2	cue_nonsocial_high	n/a	32	7	n/a	n/a	n/a
18.292528	2	cue_social	n/a	32	7	n/a	n/a	n/a
18.292528	2	cue_social_high	n/a	32	10	n/a	n/a	n/a
25.026958	2	cue_social	n/a	32	7	n/a	n/a	n/a
25.026958	2	cue_social_high	n/a	32	10	n/a	n/a	n/a
35.883850	2	cue_nonsocial	n/a	16	-6	n/a	n/a	n/a
35.883850	2	cue_nonsocial_low	n/a	16	-9	n/a	n/a	n/a
42.821754	2	cue_social	n/a	32	7	n/a	n/a	n/a
42.821754	2	cue_social_high	n/a	32	10	n/a	n/a	n/a
50.367860	2	cue_nonsocial	n/a	16	-6	n/a	n/a	n/a
50.367860	2	cue_nonsocial_low	n/a	16	-9	n/a	n/a	n/a
57.294186	2	cue_social	n/a	16	-9	n/a	n/a	n/a
57.294186	2	cue_social_low	n/a	16	-6	n/a	n/a	n/a
64.036330	2	cue_nonsocial	n/a	16	-6	n/a	n/a	n/a
64.036330	2	cue_nonsocial_low	n/a	16	-9	n/a	n/a	n/a
71.684130	2	cue_nonsocial	n/a	32	10	n/a	n/a	n/a
71.684130	2	cue_nonsocial_high	n/a	32	7	n/a	n/a	n/a
80.934080	2	cue_nonsocial	n/a	16	-6	n/a	n/a	n/a
80.934080	2	cue_nonsocial_low	n/a	16	-9	n/a	n/a	n/a
87.874466	2	cue_social	n/a	32	7	n/a	n/a	n/a
87.874466	2	cue_social_high	n/a	32	10	n/a	n/a	n/a
95.417400	2	cue_nonsocial	n/a	16	-6	n/a	n/a	n/a
95.417400	2	cue_nonsocial_low	n/a	16	-9	n/a	n/a	n/a
103.158850	2	cue_social	n/a	16	-9	n/a	n/a	n/a
103.158850	2	cue_social_low	n/a	16	-6	n/a	n/a	n/a
110.716920	2	cue_nonsocial	n/a	16	-6	n/a	n/a	n/a
110.716920	2	cue_nonsocial_low	n/a	16	-9	n/a	n/a	n/a
121.589840	2	cue_social	n/a	32	7	n/a	n/a	n/a
121.589840	2	cue_social_high	n/a	32	10	n/a	n/a	n/a
128.416980	2	cue_nonsocial	n/a	16	-6	n/a	n/a	n/a
128.416980	2	cue_nonsocial_low	n/a	16	-9	n/a	n/a	n/a
137.783100	2	cue_social	n/a	32	7	n/a	n/a	n/a
137.783100	2	cue_social_high	n/a	32	10	n/a	n/a	n/a
147.040700	2	cue_social	n/a	32	7	n/a	n/a	n/a
147.040700	2	cue_social_high	n/a	32	10	n/a	n/a	n/a
154.677140	2	cue_social	n/a	16	-9	n/a	n/a	n/a
154.677140	2	cue_social_low	n/a	16	-6	n/a	n/a	n/a
161.418320	2	cue_nonsocial	n/a	16	-6	n/a	n/a	n/a
161.418320	2	cue_nonsocial_low	n/a	16	-9	n/a	n/a	n/a
168.250020	2	cue_nonsocial	n/a	16	-6	n/a	n/a	n/a
168.250020	2	cue_nonsocial_low	n/a	16	-9	n/a	n/a	n/a
175.083400	2	cue_nonsocial	n/a	16	-6	n/a	n/a	n/a
175.083400	2	cue_nonsocial_low	n/a	16	-9	n/a	n/a	n/a
181.916900	2	cue_nonsocial	n/a	32	10	n/a	n/a	n/a
181.916900	2	cue_nonsocial_high	n/a	32	7	n/a	n/a	n/a
188.825590	2	cue_social	n/a	16	-9	n/a	n/a	n/a
188.825590	2	cue_social_low	n/a	16	-6	n/a	n/a	n/a
195.581280	2	cue_social	n/a	16	-9	n/a	n/a	n/a
195.581280	2	cue_social_low	n/a	16	-6	n/a	n/a	n/a
202.531160	2	cue_social	n/a	16	-9	n/a	n/a	n/a
202.531160	2	cue_social_low	n/a	16	-6	n/a	n/a	n/a
210.067100	2	cue_nonsocial	n/a	16	-6	n/a	n/a	n/a
210.067100	2	cue_nonsocial_low	n/a	16	-9	n/a	n/a	n/a
217.810970	2	cue_social	n/a	16	-9	n/a	n/a	n/a
217.810970	2	cue_social_low	n/a	16	-6	n/a	n/a	n/a
224.657650	2	cue_social	n/a	16	-9	n/a	n/a	n/a
224.657650	2	cue_social_low	n/a	16	-6	n/a	n/a	n/a
237.033510	2	cue_nonsocial	n/a	32	10	n/a	n/a	n/a
237.033510	2	cue_nonsocial_high	n/a	32	7	n/a	n/a	n/a
243.992450	2	cue_social	n/a	16	-9	n/a	n/a	n/a
243.992450	2	cue_social_low	n/a	16	-6	n/a	n/a	n/a
251.517900	2	cue_nonsocial	n/a	32	10	n/a	n/a	n/a
251.517900	2	cue_nonsocial_high	n/a	32	7	n/a	n/a	n/a
260.876770	2	cue_social	n/a	32	7	n/a	n/a	n/a
260.876770	2	cue_social_high	n/a	32	10	n/a	n/a	n/a
267.702820	2	cue_social	n/a	16	-9	n/a	n/a	n/a
267.702820	2	cue_social_low	n/a	16	-6	n/a	n/a	n/a
274.433400	2	cue_nonsocial	n/a	32	10	n/a	n/a	n/a
274.433400	2	cue_nonsocial_high	n/a	32	7	n/a	n/a	n/a
281.266480	2	cue_nonsocial	n/a	16	-6	n/a	n/a	n/a
281.266480	2	cue_nonsocial_low	n/a	16	-9	n/a	n/a	n/a
288.916600	2	cue_nonsocial	n/a	16	-6	n/a	n/a	n/a
288.916600	2	cue_nonsocial_low	n/a	16	-9	n/a	n/a	n/a
298.178800	2	cue_nonsocial	n/a	32	10	n/a	n/a	n/a
298.178800	2	cue_nonsocial_high	n/a	32	7	n/a	n/a	n/a
305.919500	2	cue_social	n/a	16	-9	n/a	n/a	n/a
305.919500	2	cue_social_low	n/a	16	-6	n/a	n/a	n/a
312.748930	2	cue_social	n/a	32	7	n/a	n/a	n/a
312.748930	2	cue_social_high	n/a	32	10	n/a	n/a	n/a
321.997130	2	cue_social	n/a	32	7	n/a	n/a	n/a
321.997130	2	cue_social_high	n/a	32	10	n/a	n/a	n/a
328.767270	2	cue_nonsocial	n/a	32	10	n/a	n/a	n/a
328.767270	2	cue_nonsocial_high	n/a	32	7	n/a	n/a	n/a
335.688720	2	cue_social	n/a	32	7	n/a	n/a	n/a
335.688720	2	cue_social_high	n/a	32	10	n/a	n/a	n/a
346.560060	2	cue_social	n/a	32	7	n/a	n/a	n/a
346.560060	2	cue_social_high	n/a	32	10	n/a	n/a	n/a
354.116460	2	cue_nonsocial	n/a	16	-6	n/a	n/a	n/a
354.116460	2	cue_nonsocial_low	n/a	16	-9	n/a	n/a	n/a
363.452900	2	cue_social	n/a	32	7	n/a	n/a	n/a
363.452900	2	cue_social_high	n/a	32	10	n/a	n/a	n/a
370.199860	2	cue_nonsocial	n/a	16	-6	n/a	n/a	n/a
370.199860	2	cue_nonsocial_low	n/a	16	-9	n/a	n/a	n/a
6.522947	1.283085	dec_nonsocial_choice	1.283085	32.000000	n/a	2	-1.679688e-01	-1.679688e-01
6.522947	1.283085	dec_choice	1.283085	32.000000	n/a	2	-1.705729e-01	-1.705729e-01
6.522947	1.283085	dec_nonsocial_accept	1.283085	32.000000	n/a	2	-1.777778e-01	-1.777778e-01
6.522947	1.283085	dec_accept	1.283085	32.000000	n/a	2	-1.752717e-01	-1.752717e-01
6.522947	1.283085	dec_nonsocial_accept_low	1.283085	32.000000	n/a	2	-1.803977e-01	-1.803977e-01
13.355942	0.733635	dec_nonsocial_choice	0.733635	32.000000	n/a	2	-1.679688e-01	-1.679688e-01
13.355942	0.733635	dec_choice	0.733635	32.000000	n/a	2	-1.705729e-01	-1.705729e-01
13.355942	0.733635	dec_nonsocial_accept	0.733635	32.000000	n/a	2	-1.777778e-01	-1.777778e-01
13.355942	0.733635	dec_accept	0.733635	32.000000	n/a	2	-1.752717e-01	-1.752717e-01
13.355942	0.733635	dec_nonsocial_accept_low	0.733635	32.000000	n/a	2	-1.803977e-01	-1.803977e-01
20.189642	0.732853	dec_social_choice	0.732853	32.000000	n/a	8	1.953125e-02	1.953125e-02
20.189642	0.732853	dec_choice	0.732853	32.000000	n/a	8	2.213542e-02	2.213542e-02
20.189642	0.732853	dec_social_accept	0.732853	32.000000	n/a	8	9.722222e-03	9.722222e-03
20.189642	0.732853	dec_accept	0.732853	32.000000	n/a	8	7.102273e-03	7.102273e-03
20.189642	0.732853	dec_social_high	0.732853	32.000000	n/a	8	2.213542e-02	2.213542e-02
20.189642	0.732853	dec_social_accept_high	0.732853	32.000000	n/a	8	2.213542e-02	2.213542e-02
27.022926	0.633344	dec_social_choice	0.633344	32.000000	n/a	3	-1.367188e-01	-1.367188e-01
27.022926	0.633344	dec_choice	0.633344	32.000000	n/a	3	-1.341146e-01	-1.341146e-01
27.022926	0.633344	dec_social_accept	0.633344	32.000000	n/a	3	-1.465278e-01	-1.465278e-01
27.022926	0.633344	dec_accept	0.633344	32.000000	n/a	3	-1.491477e-01	-1.491477e-01
27.022926	0.633344	dec_social_accept_low	0.633344	32.000000	n/a	3	-1.341146e-01	-1.341146e-01
37.889366	0.915929	dec_nonsocial_choice	0.915929	16.000000	n/a	4	1.953125e-02	1.953125e-02
37.889366	0.915929	dec_choice	0.915929	16.000000	n/a	4	1.692708e-02	1.692708e-02
37.889366	0.915929	dec_nonsocial_accept	0.915929	16.000000	n/a	4	9.722222e-03	9.722222e-03
37.889366	0.915929	dec_accept	0.915929	16.000000	n/a	4	1.222826e-02	1.222826e-02
37.889366	0.915929	dec_nonsocial_high	0.915929	16.000000	n/a	4	1.692708e-02	1.692708e-02
37.889366	0.915929	dec_nonsocial_accept_high	0.915929	16.000000	n/a	4	1.222826e-02	1.222826e-02
44.723030	2.249760	dec_social_choice	2.249760	32.000000	n/a	0	0	-2.304688e-01
44.723030	2.249760	dec_choice	2.249760	32.000000	n/a	0	0	-2.278646e-01
44.723030	2.249760	dec_social_reject	2.249760	32.000000	n/a	0	0	-2.083333e-02
44.723030	2.249760	dec_reject	2.249760	32.000000	n/a	0	0	0
44.723030	2.249760	dec_social_reject_low	2.249760	32.000000	n/a	2	-1.653646e-01	-2.278646e-01
52.373493	1.498990	dec_nonsocial_choice	1.498990	16.000000	n/a	1	-1.679688e-01	-1.679688e-01
52.373493	1.498990	dec_choice	1.498990	16.000000	n/a	1	-1.705729e-01	-1.705729e-01
52.373493	1.498990	dec_nonsocial_accept	1.498990	16.000000	n/a	1	-1.777778e-01	-1.777778e-01
52.373493	1.498990	dec_accept	1.498990	16.000000	n/a	1	-1.752717e-01	-1.752717e-01
52.373493	1.498990	dec_nonsocial_accept_low	1.498990	16.000000	n/a	1	-1.803977e-01	-1.803977e-01
59.205456	1.100664	dec_social_choice	1.100664	16.000000	n/a	1	-1.679688e-01	-1.679688e-01
59.205456	1.100664	dec_choice	1.100664	16.000000	n/a	1	-1.653646e-01	-1.653646e-01
59.205456	1.100664	dec_social_accept	1.100664	16.000000	n/a	1	-1.777778e-01	-1.777778e-01
59.205456	1.100664	dec_accept	1.100664	16.000000	n/a	1	-1.803977e-01	-1.803977e-01
59.205456	1.100664	dec_social_low	1.100664	16.000000	n/a	1	-1.653646e-01	-1.653646e-01
59.205456	1.100664	dec_social_accept_low	1.100664	16.000000	n/a	1	-1.653646e-01	-1.653646e-01
66.039825	0.999463	dec_nonsocial_choice	0.999463	16.000000	n/a	2	-1.054688e-01	-1.054688e-01
66.039825	0.999463	dec_choice	0.999463	16.000000	n/a	2	-1.080729e-01	-1.080729e-01
66.039825	0.999463	dec_nonsocial_accept	0.999463	16.000000	n/a	2	-1.152778e-01	-1.152778e-01
66.039825	0.999463	dec_accept	0.999463	16.000000	n/a	2	-1.127717e-01	-1.127717e-01
66.039825	0.999463	dec_nonsocial_low	0.999463	16.000000	n/a	2	-1.080729e-01	-1.080729e-01
66.039825	0.999463	dec_nonsocial_accept_low	0.999463	16.000000	n/a	2	-1.127717e-01	-1.127717e-01
73.689940	1.199391	dec_nonsocial_choice	1.199391	32.000000	n/a	8	1.953125e-02	1.953125e-02
73.689940	1.199391	dec_choice	1.199391	32.000000	n/a	8	1.692708e-02	1.692708e-02
73.689940	1.199391	dec_nonsocial_accept	1.199391	32.000000	n/a	8	9.722222e-03	9.722222e-03
73.689940	1.199391	dec_accept	1.199391	32.000000	n/a	8	1.222826e-02	1.222826e-02
73.689940	1.199391	dec_nonsocial_high	1.199391	32.000000	n/a	8	1.692708e-02	1.692708e-02
73.689940	1.199391	dec_nonsocial_accept_high	1.199391	32.000000	n/a	8	1.222826e-02	1.222826e-02
82.938866	1.716790	dec_nonsocial_choice	1.716790	16.000000	n/a	2	-1.054688e-01	-1.054688e-01
82.938866	1.716790	dec_choice	1.716790	16.000000	n/a	2	-1.080729e-01	-1.080729e-01
82.938866	1.716790	dec_nonsocial_accept	1.716790	16.000000	n/a	2	-1.152778e-01	-1.152778e-01
82.938866	1.716790	dec_accept	1.716790	16.000000	n/a	2	-1.127717e-01	-1.127717e-01
82.938866	1.716790	dec_nonsocial_accept_low	1.716790	16.000000	n/a	2	-1.178977e-01	-1.178977e-01
89.772910	0.949441	dec_social_choice	0.949441	32.000000	n/a	8	1.953125e-02	1.953125e-02
89.772910	0.949441	dec_choice	0.949441	32.000000	n/a	8	2.213542e-02	2.213542e-02
89.772910	0.949441	dec_social_accept	0.949441	32.000000	n/a	8	9.722222e-03	9.722222e-03
89.772910	0.949441	dec_accept	0.949441	32.000000	n/a	8	7.102273e-03	7.102273e-03
89.772910	0.949441	dec_social_accept_high	0.949441	32.000000	n/a	8	2.213542e-02	2.213542e-02
97.422990	1.033281	dec_nonsocial_choice	1.033281	16.000000	n/a	2	-1.054688e-01	-1.054688e-01
97.422990	1.033281	dec_choice	1.033281	16.000000	n/a	2	-1.080729e-01	-1.080729e-01
97.422990	1.033281	dec_nonsocial_accept	1.033281	16.000000	n/a	2	-1.152778e-01	-1.152778e-01
97.422990	1.033281	dec_accept	1.033281	16.000000	n/a	2	-1.127717e-01	-1.127717e-01
97.422990	1.033281	dec_nonsocial_accept_low	1.033281	16.000000	n/a	2	-1.178977e-01	-1.178977e-01
105.072685	0.966301	dec_social_choice	0.966301	16.000000	n/a	8	2.695312e-01	2.695312e-01
105.072685	0.966301	dec_choice	0.966301	16.000000	n/a	8	2.721354e-01	2.721354e-01
105.072685	0.966301	dec_social_accept	0.966301	16.000000	n/a	8	2.597222e-01	2.597222e-01
105.072685	0.966301	dec_accept	0.966301	16.000000	n/a	8	2.571023e-01	2.571023e-01
105.072685	0.966301	dec_social_high	0.966301	16.000000	n/a	8	2.721354e-01	2.721354e-01
105.072685	0.966301	dec_social_accept_high	0.966301	16.000000	n/a	8	2.721354e-01	2.721354e-01
112.722336	1.050188	dec_nonsocial_choice	1.050188	16.000000	n/a	8	2.695312e-01	2.695312e-01
112.722336	1.050188	dec_choice	1.050188	16.000000	n/a	8	2.669271e-01	2.669271e-01
112.722336	1.050188	dec_nonsocial_accept	1.050188	16.000000	n/a	8	2.597222e-01	2.597222e-01
112.722336	1.050188	dec_accept	1.050188	16.000000	n/a	8	2.622283e-01	2.622283e-01
112.722336	1.050188	dec_nonsocial_high	1.050188	16.000000	n/a	8	2.669271e-01	2.669271e-01
112.722336	1.050188	dec_nonsocial_accept_high	1.050188	16.000000	n/a	8	2.622283e-01	2.622283e-01
123.589970	0.916140	dec_social_choice	0.916140	32.000000	n/a	0	0	-2.304688e-01
123.589970	0.916140	dec_choice	0.916140	32.000000	n/a	0	0	-2.278646e-01
123.589970	0.916140	dec_social_reject	0.916140	32.000000	n/a	0	0	-2.083333e-02
123.589970	0.916140	dec_reject	0.916140	32.000000	n/a	0	0	0
123.589970	0.916140	dec_social_reject_low	0.916140	32.000000	n/a	2	-1.653646e-01	-2.278646e-01
130.423050	1.065369	dec_nonsocial_choice	1.065369	16.000000	n/a	8	2.695312e-01	2.695312e-01
130.423050	1.065369	dec_choice	1.065369	16.000000	n/a	8	2.669271e-01	2.669271e-01
130.423050	1.065369	dec_nonsocial_accept	1.065369	16.000000	n/a	8	2.597222e-01	2.597222e-01
130.423050	1.065369	dec_accept	1.065369	16.000000	n/a	8	2.622283e-01	2.622283e-01
130.423050	1.065369	dec_nonsocial_accept_high	1.065369	16.000000	n/a	8	2.571023e-01	2.571023e-01
139.690020	0.882260	dec_social_choice	0.882260	32.000000	n/a	3	-1.367188e-01	-1.367188e-01
139.690020	0.882260	dec_choice	0.882260	32.000000	n/a	3	-1.341146e-01	-1.341146e-01
139.690020	0.882260	dec_social_accept	0.882260	32.000000	n/a	3	-1.465278e-01	-1.465278e-01
139.690020	0.882260	dec_accept	0.882260	32.000000	n/a	3	-1.491477e-01	-1.491477e-01
139.690020	0.882260	dec_social_low	0.882260	32.000000	n/a	3	-1.341146e-01	-1.341146e-01
139.690020	0.882260	dec_social_accept_low	0.882260	32.000000	n/a	3	-1.341146e-01	-1.341146e-01
148.955960	1.633199	dec_social_choice	1.633199	32.000000	n/a	3	-1.367188e-01	-1.367188e-01
148.955960	1.633199	dec_choice	1.633199	32.000000	n/a	3	-1.341146e-01	-1.341146e-01
148.955960	1.633199	dec_social_accept	1.633199	32.000000	n/a	3	-1.465278e-01	-1.465278e-01
148.955960	1.633199	dec_accept	1.633199	32.000000	n/a	3	-1.491477e-01	-1.491477e-01
148.955960	1.633199	dec_social_accept_low	1.633199	32.000000	n/a	3	-1.341146e-01	-1.341146e-01
156.589370	0.849783	dec_social_choice	0.849783	16.000000	n/a	4	1.953125e-02	1.953125e-02
156.589370	0.849783	dec_choice	0.849783	16.000000	n/a	4	2.213542e-02	2.213542e-02
156.589370	0.849783	dec_social_accept	0.849783	16.000000	n/a	4	9.722222e-03	9.722222e-03
156.589370	0.849783	dec_accept	0.849783	16.000000	n/a	4	7.102273e-03	7.102273e-03
156.589370	0.849783	dec_social_accept_high	0.849783	16.000000	n/a	4	2.213542e-02	2.213542e-02
163.423100	1.549687	dec_nonsocial_choice	1.549687	16.000000	n/a	4	1.953125e-02	1.953125e-02
163.423100	1.549687	dec_choice	1.549687	16.000000	n/a	4	1.692708e-02	1.692708e-02
163.423100	1.549687	dec_nonsocial_accept	1.549687	16.000000	n/a	4	9.722222e-03	9.722222e-03
163.423100	1.549687	dec_accept	1.549687	16.000000	n/a	4	1.222826e-02	1.222826e-02
163.423100	1.549687	dec_nonsocial_high	1.549687	16.000000	n/a	4	1.692708e-02	1.692708e-02
163.423100	1.549687	dec_nonsocial_accept_high	1.549687	16.000000	n/a	4	1.222826e-02	1.222826e-02
170.256100	1.032666	dec_nonsocial_choice	1.032666	16.000000	n/a	1	-1.679688e-01	-1.679688e-01
170.256100	1.032666	dec_choice	1.032666	16.000000	n/a	1	-1.705729e-01	-1.705729e-01
170.256100	1.032666	dec_nonsocial_accept	1.032666	16.000000	n/a	1	-1.777778e-01	-1.777778e-01
170.256100	1.032666	dec_accept	1.032666	16.000000	n/a	1	-1.752717e-01	-1.752717e-01
170.256100	1.032666	dec_nonsocial_accept_low	1.032666	16.000000	n/a	1	-1.803977e-01	-1.803977e-01
177.089000	1.333617	dec_nonsocial_choice	1.333617	16.000000	n/a	8	2.695312e-01	2.695312e-01
177.089000	1.333617	dec_choice	1.333617	16.000000	n/a	8	2.669271e-01	2.669271e-01
177.089000	1.333617	dec_nonsocial_accept	1.333617	16.000000	n/a	8	2.597222e-01	2.597222e-01
177.089000	1.333617	dec_accept	1.333617	16.000000	n/a	8	2.622283e-01	2.622283e-01
177.089000	1.333617	dec_nonsocial_high	1.333617	16.000000	n/a	8	2.669271e-01	2.669271e-01
177.089000	1.333617	dec_nonsocial_accept_high	1.333617	16.000000	n/a	8	2.622283e-01	2.622283e-01
183.921970	1.100687	dec_nonsocial_choice	1.100687	32.000000	n/a	3	-1.367188e-01	-1.367188e-01
183.921970	1.100687	dec_choice	1.100687	32.000000	n/a	3	-1.393229e-01	-1.393229e-01
183.921970	1.100687	dec_nonsocial_accept	1.100687	32.000000	n/a	3	-1.465278e-01	-1.465278e-01
183.921970	1.100687	dec_accept	1.100687	32.000000	n/a	3	-1.440217e-01	-1.440217e-01
183.921970	1.100687	dec_nonsocial_accept_low	1.100687	32.000000	n/a	3	-1.491477e-01	-1.491477e-01
190.755390	1.000371	dec_social_choice	1.000371	16.000000	n/a	8	2.695312e-01	2.695312e-01
190.755390	1.000371	dec_choice	1.000371	16.000000	n/a	8	2.721354e-01	2.721354e-01
190.755390	1.000371	dec_social_accept	1.000371	16.000000	n/a	8	2.597222e-01	2.597222e-01
190.755390	1.000371	dec_accept	1.000371	16.000000	n/a	8	2.571023e-01	2.571023e-01
190.755390	1.000371	dec_social_high	1.000371	16.000000	n/a	8	2.721354e-01	2.721354e-01
190.755390	1.000371	dec_social_accept_high	1.000371	16.000000	n/a	8	2.721354e-01	2.721354e-01
197.589140	0.716109	dec_social_choice	0.716109	16.000000	n/a	4	1.953125e-02	1.953125e-02
197.589140	0.716109	dec_choice	0.716109	16.000000	n/a	4	2.213542e-02	2.213542e-02
197.589140	0.716109	dec_social_accept	0.716109	16.000000	n/a	4	9.722222e-03	9.722222e-03
197.589140	0.716109	dec_accept	0.716109	16.000000	n/a	4	7.102273e-03	7.102273e-03
197.589140	0.716109	dec_social_high	0.716109	16.000000	n/a	4	2.213542e-02	2.213542e-02
197.589140	0.716109	dec_social_accept_high	0.716109	16.000000	n/a	4	2.213542e-02	2.213542e-02
204.422760	0.849629	dec_social_choice	0.849629	16.000000	n/a	8	2.695312e-01	2.695312e-01
204.422760	0.849629	dec_choice	0.849629	16.000000	n/a	8	2.721354e-01	2.721354e-01
204.422760	0.849629	dec_social_accept	0.849629	16.000000	n/a	8	2.597222e-01	2.597222e-01
204.422760	0.849629	dec_accept	0.849629	16.000000	n/a	8	2.571023e-01	2.571023e-01
204.422760	0.849629	dec_social_high	0.849629	16.000000	n/a	8	2.721354e-01	2.721354e-01
204.422760	0.849629	dec_social_accept_high	0.849629	16.000000	n/a	8	2.721354e-01	2.721354e-01
212.072970	1.632563	dec_nonsocial_choice	1.632563	16.000000	n/a	1	-1.679688e-01	-1.679688e-01
212.072970	1.632563	dec_choice	1.632563	16.000000	n/a	1	-1.705729e-01	-1.705729e-01
212.072970	1.632563	dec_nonsocial_accept	1.632563	16.000000	n/a	1	-1.777778e-01	-1.777778e-01
212.072970	1.632563	dec_accept	1.632563	16.000000	n/a	1	-1.752717e-01	-1.752717e-01
212.072970	1.632563	dec_nonsocial_accept_low	1.632563	16.000000	n/a	1	-1.803977e-01	-1.803977e-01
219.722150	2.683750	dec_social_choice	2.683750	16.000000	n/a	2	-1.054688e-01	-1.054688e-01
219.722150	2.683750	dec_choice	2.683750	16.000000	n/a	2	-1.028646e-01	-1.028646e-01
219.722150	2.683750	dec_social_accept	2.683750	16.000000	n/a	2	-1.152778e-01	-1.152778e-01
219.722150	2.683750	dec_accept	2.683750	16.000000	n/a	2	-1.178977e-01	-1.178977e-01
219.722150	2.683750	dec_social_low	2.683750	16.000000	n/a	2	-1.028646e-01	-1.028646e-01
219.722150	2.683750	dec_social_accept_low	2.683750	16.000000	n/a	2	-1.028646e-01	-1.028646e-01
226.555910	1.016896	dec_social_choice	1.016896	16.000000	n/a	8	2.695312e-01	2.695312e-01
226.555910	1.016896	dec_choice	1.016896	16.000000	n/a	8	2.721354e-01	2.721354e-01
226.555910	1.016896	dec_social_accept	1.016896	16.000000	n/a	8	2.597222e-01	2.597222e-01
226.555910	1.016896	dec_accept	1.016896	16.000000	n/a	8	2.571023e-01	2.571023e-01
226.555910	1.016896	dec_social_accept_high	1.016896	16.000000	n/a	8	2.721354e-01	2.721354e-01
239.038900	1.116461	dec_nonsocial_choice	1.116461	32.000000	n/a	16	2.695312e-01	2.695312e-01
239.038900	1.116461	dec_choice	1.116461	32.000000	n/a	16	2.669271e-01	2.669271e-01
239.038900	1.116461	dec_nonsocial_accept	1.116461	32.000000	n/a	16	2.597222e-01	2.597222e-01
239.038900	1.116461	dec_accept	1.116461	32.000000	n/a	16	2.622283e-01	2.622283e-01
239.038900	1.116461	dec_nonsocial_accept_high	1.116461	32.000000	n/a	16	2.571023e-01	2.571023e-01
245.872540	1.198991	dec_social_choice	1.198991	16.000000	n/a	8	2.695312e-01	2.695312e-01
245.872540	1.198991	dec_choice	1.198991	16.000000	n/a	8	2.721354e-01	2.721354e-01
245.872540	1.198991	dec_social_accept	1.198991	16.000000	n/a	8	2.597222e-01	2.597222e-01
245.872540	1.198991	dec_accept	1.198991	16.000000	n/a	8	2.571023e-01	2.571023e-01
245.872540	1.198991	dec_social_high	1.198991	16.000000	n/a	8	2.721354e-01	2.721354e-01
245.872540	1.198991	dec_social_accept_high	1.198991	16.000000	n/a	8	2.721354e-01	2.721354e-01
253.521900	0.950189	dec_nonsocial_choice	0.950189	32.000000	n/a	8	1.953125e-02	1.953125e-02
253.521900	0.950189	dec_choice	0.950189	32.000000	n/a	8	1.692708e-02	1.692708e-02
253.521900	0.950189	dec_nonsocial_accept	0.950189	32.000000	n/a	8	9.722222e-03	9.722222e-03
253.521900	0.950189	dec_accept	0.950189	32.000000	n/a	8	1.222826e-02	1.222826e-02
253.521900	0.950189	dec_nonsocial_high	0.950189	32.000000	n/a	8	1.692708e-02	1.692708e-02
253.521900	0.950189	dec_nonsocial_accept_high	0.950189	32.000000	n/a	8	1.222826e-02	1.222826e-02
262.772060	2.150201	dec_social_choice	2.150201	32.000000	n/a	2	-1.679688e-01	-1.679688e-01
262.772060	2.150201	dec_choice	2.150201	32.000000	n/a	2	-1.653646e-01	-1.653646e-01
262.772060	2.150201	dec_social_accept	2.150201	32.000000	n/a	2	-1.777778e-01	-1.777778e-01
262.772060	2.150201	dec_accept	2.150201	32.000000	n/a	2	-1.803977e-01	-1.803977e-01
262.772060	2.150201	dec_social_accept_low	2.150201	32.000000	n/a	2	-1.653646e-01	-1.653646e-01
269.605040	1.050916	dec_social_choice	1.050916	16.000000	n/a	4	1.953125e-02	1.953125e-02
269.605040	1.050916	dec_choice	1.050916	16.000000	n/a	4	2.213542e-02	2.213542e-02
269.605040	1.050916	dec_social_accept	1.050916	16.000000	n/a	4	9.722222e-03	9.722222e-03
269.605040	1.050916	dec_accept	1.050916	16.000000	n/a	4	7.102273e-03	7.102273e-03
269.605040	1.050916	dec_social_accept_high	1.050916	16.000000	n/a	4	2.213542e-02	2.213542e-02
276.439120	1.000084	dec_nonsocial_choice	1.000084	32.000000	n/a	16	2.695312e-01	2.695312e-01
276.439120	1.000084	dec_choice	1.000084	32.000000	n/a	16	2.669271e-01	2.669271e-01
276.439120	1.000084	dec_nonsocial_accept	1.000084	32.000000	n/a	16	2.597222e-01	2.597222e-01
276.439120	1.000084	dec_accept	1.000084	32.000000	n/a	16	2.622283e-01	2.622283e-01
276.439120	1.000084	dec_nonsocial_accept_high	1.000084	32.000000	n/a	16	2.571023e-01	2.571023e-01
283.272400	0.966266	dec_nonsocial_choice	0.966266	16.000000	n/a	2	-1.054688e-01	-1.054688e-01
283.272400	0.966266	dec_choice	0.966266	16.000000	n/a	2	-1.080729e-01	-1.080729e-01
283.272400	0.966266	dec_nonsocial_accept	0.966266	16.000000	n/a	2	-1.152778e-01	-1.152778e-01
283.272400	0.966266	dec_accept	0.966266	16.000000	n/a	2	-1.127717e-01	-1.127717e-01
283.272400	0.966266	dec_nonsocial_low	0.966266	16.000000	n/a	2	-1.080729e-01	-1.080729e-01
283.272400	0.966266	dec_nonsocial_accept_low	0.966266	16.000000	n/a	2	-1.127717e-01	-1.127717e-01
290.923070	0.948874	dec_nonsocial_choice	0.948874	16.000000	n/a	8	2.695312e-01	2.695312e-01
290.923070	0.948874	dec_choice	0.948874	16.000000	n/a	8	2.669271e-01	2.669271e-01
290.923070	0.948874	dec_nonsocial_accept	0.948874	16.000000	n/a	8	2.597222e-01	2.597222e-01
290.923070	0.948874	dec_accept	0.948874	16.000000	n/a	8	2.622283e-01	2.622283e-01
290.923070	0.948874	dec_nonsocial_high	0.948874	16.000000	n/a	8	2.669271e-01	2.669271e-01
290.923070	0.948874	dec_nonsocial_accept_high	0.948874	16.000000	n/a	8	2.622283e-01	2.622283e-01
300.188930	0.916332	dec_nonsocial_choice	0.916332	32.000000	n/a	2	-1.679688e-01	-1.679688e-01
300.188930	0.916332	dec_choice	0.916332	32.000000	n/a	2	-1.705729e-01	-1.705729e-01
300.188930	0.916332	dec_nonsocial_accept	0.916332	32.000000	n/a	2	-1.777778e-01	-1.777778e-01
300.188930	0.916332	dec_accept	0.916332	32.000000	n/a	2	-1.752717e-01	-1.752717e-01
300.188930	0.916332	dec_nonsocial_low	0.916332	32.000000	n/a	2	-1.705729e-01	-1.705729e-01
300.188930	0.916332	dec_nonsocial_accept_low	0.916332	32.000000	n/a	2	-1.752717e-01	-1.752717e-01
307.837950	0.867802	dec_social_choice	0.867802	16.000000	n/a	4	1.953125e-02	1.953125e-02
307.837950	0.867802	dec_choice	0.867802	16.000000	n/a	4	2.213542e-02	2.213542e-02
307.837950	0.867802	dec_social_accept	0.867802	16.000000	n/a	4	9.722222e-03	9.722222e-03
307.837950	0.867802	dec_accept	0.867802	16.000000	n/a	4	7.102273e-03	7.102273e-03
307.837950	0.867802	dec_social_accept_high	0.867802	16.000000	n/a	4	2.213542e-02	2.213542e-02
314.671720	0.933792	dec_social_choice	0.933792	32.000000	n/a	16	2.695312e-01	2.695312e-01
314.671720	0.933792	dec_choice	0.933792	32.000000	n/a	16	2.721354e-01	2.721354e-01
314.671720	0.933792	dec_social_accept	0.933792	32.000000	n/a	16	2.597222e-01	2.597222e-01
314.671720	0.933792	dec_accept	0.933792	32.000000	n/a	16	2.571023e-01	2.571023e-01
314.671720	0.933792	dec_social_high	0.933792	32.000000	n/a	16	2.721354e-01	2.721354e-01
314.671720	0.933792	dec_social_accept_high	0.933792	32.000000	n/a	16	2.721354e-01	2.721354e-01
323.939030	1.083126	dec_social_choice	1.083126	32.000000	n/a	3	-1.367188e-01	-1.367188e-01
323.939030	1.083126	dec_choice	1.083126	32.000000	n/a	3	-1.341146e-01	-1.341146e-01
323.939030	1.083126	dec_social_accept	1.083126	32.000000	n/a	3	-1.465278e-01	-1.465278e-01
323.939030	1.083126	dec_accept	1.083126	32.000000	n/a	3	-1.491477e-01	-1.491477e-01
323.939030	1.083126	dec_social_accept_low	1.083126	32.000000	n/a	3	-1.341146e-01	-1.341146e-01
330.772030	1.150002	dec_nonsocial_choice	1.150002	32.000000	n/a	8	1.953125e-02	1.953125e-02
330.772030	1.150002	dec_choice	1.150002	32.000000	n/a	8	1.692708e-02	1.692708e-02
330.772030	1.150002	dec_nonsocial_accept	1.150002	32.000000	n/a	8	9.722222e-03	9.722222e-03
330.772030	1.150002	dec_accept	1.150002	32.000000	n/a	8	1.222826e-02	1.222826e-02
330.772030	1.150002	dec_nonsocial_high	1.150002	32.000000	n/a	8	1.692708e-02	1.692708e-02
330.772030	1.150002	dec_nonsocial_accept_high	1.150002	32.000000	n/a	8	1.222826e-02	1.222826e-02
337.605470	0.883210	dec_social_choice	0.883210	32.000000	n/a	3	-1.367188e-01	-1.367188e-01
337.605470	0.883210	dec_choice	0.883210	32.000000	n/a	3	-1.341146e-01	-1.341146e-01
337.605470	0.883210	dec_social_accept	0.883210	32.000000	n/a	3	-1.465278e-01	-1.465278e-01
337.605470	0.883210	dec_accept	0.883210	32.000000	n/a	3	-1.491477e-01	-1.491477e-01
337.605470	0.883210	dec_social_low	0.883210	32.000000	n/a	3	-1.341146e-01	-1.341146e-01
337.605470	0.883210	dec_social_accept_low	0.883210	32.000000	n/a	3	-1.341146e-01	-1.341146e-01
348.472200	0.816376	dec_social_choice	0.816376	32.000000	n/a	2	-1.679688e-01	-1.679688e-01
348.472200	0.816376	dec_choice	0.816376	32.000000	n/a	2	-1.653646e-01	-1.653646e-01
348.472200	0.816376	dec_social_accept	0.816376	32.000000	n/a	2	-1.777778e-01	-1.777778e-01
348.472200	0.816376	dec_accept	0.816376	32.000000	n/a	2	-1.803977e-01	-1.803977e-01
348.472200	0.816376	dec_social_low	0.816376	32.000000	n/a	2	-1.653646e-01	-1.653646e-01
348.472200	0.816376	dec_social_accept_low	0.816376	32.000000	n/a	2	-1.653646e-01	-1.653646e-01
356.122220	0.849499	dec_nonsocial_choice	0.849499	16.000000	n/a	0	0	-2.304688e-01
356.122220	0.849499	dec_choice	0.849499	16.000000	n/a	0	0	-2.330729e-01
356.122220	0.849499	dec_nonsocial_reject	0.849499	16.000000	n/a	0	0	4.166667e-02
356.122220	0.849499	dec_reject	0.849499	16.000000	n/a	0	0	0
356.122220	0.849499	dec_nonsocial_low	0.849499	16.000000	n/a	0	-2.330729e-01	-2.330729e-01
356.122220	0.849499	dec_nonsocial_reject_low	0.849499	16.000000	n/a	2	0	-1.250000e-01
365.371200	1.601125	dec_social_choice	1.601125	32.000000	n/a	2	-1.679688e-01	-1.679688e-01
365.371200	1.601125	dec_choice	1.601125	32.000000	n/a	2	-1.653646e-01	-1.653646e-01
365.371200	1.601125	dec_social_accept	1.601125	32.000000	n/a	2	-1.777778e-01	-1.777778e-01
365.371200	1.601125	dec_accept	1.601125	32.000000	n/a	2	-1.803977e-01	-1.803977e-01
365.371200	1.601125	dec_social_low	1.601125	32.000000	n/a	2	-1.653646e-01	-1.653646e-01
365.371200	1.601125	dec_social_accept_low	1.601125	32.000000	n/a	2	-1.653646e-01	-1.653646e-01
372.205630	1.099826	dec_nonsocial_choice	1.099826	16.000000	n/a	4	1.953125e-02	1.953125e-02
372.205630	1.099826	dec_choice	1.099826	16.000000	n/a	4	1.692708e-02	1.692708e-02
372.205630	1.099826	dec_nonsocial_accept	1.099826	16.000000	n/a	4	9.722222e-03	9.722222e-03
372.205630	1.099826	dec_accept	1.099826	16.000000	n/a	4	1.222826e-02	1.222826e-02
372.205630	1.099826	dec_nonsocial_high	1.099826	16.000000	n/a	4	1.692708e-02	1.692708e-02
372.205630	1.099826	dec_nonsocial_accept_high	1.099826	16.000000	n/a	4	1.222826e-02	1.222826e-02
