onset	duration	trial_type	response_time	Endowment	Endowment_pmod	Decision	Decision_pmod	Offer_pmod
4.621004	2	cue_social	n/a	32	10	n/a	n/a	n/a
4.621004	2	cue_social_high	n/a	32	7	n/a	n/a	n/a
13.896599	2	cue_social	n/a	16	-6	n/a	n/a	n/a
13.896599	2	cue_social_low	n/a	16	-9	n/a	n/a	n/a
21.435122	2	cue_social	n/a	16	-6	n/a	n/a	n/a
21.435122	2	cue_social_low	n/a	16	-9	n/a	n/a	n/a
29.086412	2	cue_nonsocial	n/a	16	-9	n/a	n/a	n/a
29.086412	2	cue_nonsocial_low	n/a	16	-6	n/a	n/a	n/a
35.988650	2	cue_social	n/a	16	-6	n/a	n/a	n/a
35.988650	2	cue_social_low	n/a	16	-9	n/a	n/a	n/a
42.843826	2	cue_social	n/a	32	10	n/a	n/a	n/a
42.843826	2	cue_social_high	n/a	32	7	n/a	n/a	n/a
50.479080	2	cue_social	n/a	32	10	n/a	n/a	n/a
50.479080	2	cue_social_high	n/a	32	7	n/a	n/a	n/a
58.053246	2	cue_nonsocial	n/a	16	-9	n/a	n/a	n/a
58.053246	2	cue_nonsocial_low	n/a	16	-6	n/a	n/a	n/a
64.973880	2	cue_social	n/a	32	10	n/a	n/a	n/a
64.973880	2	cue_social_high	n/a	32	7	n/a	n/a	n/a
75.757470	2	cue_social	n/a	16	-6	n/a	n/a	n/a
75.757470	2	cue_social_low	n/a	16	-9	n/a	n/a	n/a
82.585930	2	cue_nonsocial	n/a	16	-9	n/a	n/a	n/a
82.585930	2	cue_nonsocial_low	n/a	16	-6	n/a	n/a	n/a
89.420400	2	cue_nonsocial	n/a	32	7	n/a	n/a	n/a
89.420400	2	cue_nonsocial_high	n/a	32	10	n/a	n/a	n/a
97.156845	2	cue_social	n/a	16	-6	n/a	n/a	n/a
97.156845	2	cue_social_low	n/a	16	-9	n/a	n/a	n/a
106.336330	2	cue_nonsocial	n/a	16	-9	n/a	n/a	n/a
106.336330	2	cue_nonsocial_low	n/a	16	-6	n/a	n/a	n/a
113.251310	2	cue_social	n/a	16	-6	n/a	n/a	n/a
113.251310	2	cue_social_low	n/a	16	-9	n/a	n/a	n/a
122.431160	2	cue_social	n/a	16	-6	n/a	n/a	n/a
122.431160	2	cue_social_low	n/a	16	-9	n/a	n/a	n/a
129.344210	2	cue_social	n/a	16	-6	n/a	n/a	n/a
129.344210	2	cue_social_low	n/a	16	-9	n/a	n/a	n/a
136.886110	2	cue_nonsocial	n/a	32	7	n/a	n/a	n/a
136.886110	2	cue_nonsocial_high	n/a	32	10	n/a	n/a	n/a
146.153200	2	cue_nonsocial	n/a	32	7	n/a	n/a	n/a
146.153200	2	cue_nonsocial_high	n/a	32	10	n/a	n/a	n/a
152.985930	2	cue_nonsocial	n/a	16	-9	n/a	n/a	n/a
152.985930	2	cue_nonsocial_low	n/a	16	-6	n/a	n/a	n/a
162.312700	2	cue_social	n/a	16	-6	n/a	n/a	n/a
162.312700	2	cue_social_low	n/a	16	-9	n/a	n/a	n/a
173.119450	2	cue_nonsocial	n/a	32	7	n/a	n/a	n/a
173.119450	2	cue_nonsocial_high	n/a	32	10	n/a	n/a	n/a
182.454970	2	cue_social	n/a	32	10	n/a	n/a	n/a
182.454970	2	cue_social_high	n/a	32	7	n/a	n/a	n/a
189.293430	2	cue_social	n/a	16	-6	n/a	n/a	n/a
189.293430	2	cue_social_low	n/a	16	-9	n/a	n/a	n/a
196.852690	2	cue_nonsocial	n/a	16	-9	n/a	n/a	n/a
196.852690	2	cue_nonsocial_low	n/a	16	-6	n/a	n/a	n/a
203.686460	2	cue_nonsocial	n/a	16	-9	n/a	n/a	n/a
203.686460	2	cue_nonsocial_low	n/a	16	-6	n/a	n/a	n/a
216.249300	2	cue_social	n/a	32	10	n/a	n/a	n/a
216.249300	2	cue_social_high	n/a	32	7	n/a	n/a	n/a
223.018480	2	cue_social	n/a	16	-6	n/a	n/a	n/a
223.018480	2	cue_social_low	n/a	16	-9	n/a	n/a	n/a
229.926180	2	cue_social	n/a	16	-6	n/a	n/a	n/a
229.926180	2	cue_social_low	n/a	16	-9	n/a	n/a	n/a
236.669280	2	cue_nonsocial	n/a	16	-9	n/a	n/a	n/a
236.669280	2	cue_nonsocial_low	n/a	16	-6	n/a	n/a	n/a
244.319290	2	cue_nonsocial	n/a	32	7	n/a	n/a	n/a
244.319290	2	cue_nonsocial_high	n/a	32	10	n/a	n/a	n/a
251.164580	2	cue_nonsocial	n/a	32	7	n/a	n/a	n/a
251.164580	2	cue_nonsocial_high	n/a	32	10	n/a	n/a	n/a
257.986270	2	cue_nonsocial	n/a	32	7	n/a	n/a	n/a
257.986270	2	cue_nonsocial_high	n/a	32	10	n/a	n/a	n/a
265.631260	2	cue_nonsocial	n/a	16	-9	n/a	n/a	n/a
265.631260	2	cue_nonsocial_low	n/a	16	-6	n/a	n/a	n/a
272.546660	2	cue_social	n/a	32	10	n/a	n/a	n/a
272.546660	2	cue_social_high	n/a	32	7	n/a	n/a	n/a
279.286470	2	cue_nonsocial	n/a	16	-9	n/a	n/a	n/a
279.286470	2	cue_nonsocial_low	n/a	16	-6	n/a	n/a	n/a
286.199280	2	cue_social	n/a	16	-6	n/a	n/a	n/a
286.199280	2	cue_social_low	n/a	16	-9	n/a	n/a	n/a
292.953120	2	cue_nonsocial	n/a	32	7	n/a	n/a	n/a
292.953120	2	cue_nonsocial_high	n/a	32	10	n/a	n/a	n/a
299.786350	2	cue_nonsocial	n/a	32	7	n/a	n/a	n/a
299.786350	2	cue_nonsocial_high	n/a	32	10	n/a	n/a	n/a
310.657070	2	cue_social	n/a	32	10	n/a	n/a	n/a
310.657070	2	cue_social_high	n/a	32	7	n/a	n/a	n/a
317.486300	2	cue_nonsocial	n/a	32	7	n/a	n/a	n/a
317.486300	2	cue_nonsocial_high	n/a	32	10	n/a	n/a	n/a
324.319500	2	cue_nonsocial	n/a	32	7	n/a	n/a	n/a
324.319500	2	cue_nonsocial_high	n/a	32	10	n/a	n/a	n/a
331.969760	2	cue_nonsocial	n/a	32	7	n/a	n/a	n/a
331.969760	2	cue_nonsocial_high	n/a	32	10	n/a	n/a	n/a
338.891000	2	cue_social	n/a	16	-6	n/a	n/a	n/a
338.891000	2	cue_social_low	n/a	16	-9	n/a	n/a	n/a
346.452850	2	cue_nonsocial	n/a	16	-9	n/a	n/a	n/a
346.452850	2	cue_nonsocial_low	n/a	16	-6	n/a	n/a	n/a
354.102840	2	cue_nonsocial	n/a	32	7	n/a	n/a	n/a
354.102840	2	cue_nonsocial_high	n/a	32	10	n/a	n/a	n/a
363.432700	2	cue_social	n/a	16	-6	n/a	n/a	n/a
363.432700	2	cue_social_low	n/a	16	-9	n/a	n/a	n/a
370.295750	2	cue_social	n/a	32	10	n/a	n/a	n/a
370.295750	2	cue_social_high	n/a	32	7	n/a	n/a	n/a
6.525754	1.265635	dec_social_choice	1.265635	32.000000	n/a	2	-1.699219e-01	-1.699219e-01
6.525754	1.265635	dec_choice	1.265635	32.000000	n/a	2	-1.692708e-01	-1.692708e-01
6.525754	1.265635	dec_social_accept	1.265635	32.000000	n/a	2	-1.699219e-01	-1.699219e-01
6.525754	1.265635	dec_accept	1.265635	32.000000	n/a	2	-1.692708e-01	-1.692708e-01
6.525754	1.265635	dec_social_accept_low	1.265635	32.000000	n/a	2	-1.692708e-01	-1.692708e-01
15.792024	0.749814	dec_social_choice	0.749814	16.000000	n/a	8	2.675781e-01	2.675781e-01
15.792024	0.749814	dec_choice	0.749814	16.000000	n/a	8	2.682292e-01	2.682292e-01
15.792024	0.749814	dec_social_accept	0.749814	16.000000	n/a	8	2.675781e-01	2.675781e-01
15.792024	0.749814	dec_accept	0.749814	16.000000	n/a	8	2.682292e-01	2.682292e-01
15.792024	0.749814	dec_social_accept_high	0.749814	16.000000	n/a	8	2.682292e-01	2.682292e-01
23.442501	0.815966	dec_social_choice	0.815966	16.000000	n/a	8	2.675781e-01	2.675781e-01
23.442501	0.815966	dec_choice	0.815966	16.000000	n/a	8	2.682292e-01	2.682292e-01
23.442501	0.815966	dec_social_accept	0.815966	16.000000	n/a	8	2.675781e-01	2.675781e-01
23.442501	0.815966	dec_accept	0.815966	16.000000	n/a	8	2.682292e-01	2.682292e-01
23.442501	0.815966	dec_social_high	0.815966	16.000000	n/a	8	2.682292e-01	2.682292e-01
23.442501	0.815966	dec_social_accept_high	0.815966	16.000000	n/a	8	2.682292e-01	2.682292e-01
31.092932	1.548960	dec_nonsocial_choice	1.548960	16.000000	n/a	2	-1.074219e-01	-1.074219e-01
31.092932	1.548960	dec_choice	1.548960	16.000000	n/a	2	-1.080729e-01	-1.080729e-01
31.092932	1.548960	dec_nonsocial_accept	1.548960	16.000000	n/a	2	-1.074219e-01	-1.074219e-01
31.092932	1.548960	dec_accept	1.548960	16.000000	n/a	2	-1.080729e-01	-1.080729e-01
31.092932	1.548960	dec_nonsocial_accept_low	1.548960	16.000000	n/a	2	-1.067708e-01	-1.067708e-01
37.925060	1.033864	dec_social_choice	1.033864	16.000000	n/a	1	-1.699219e-01	-1.699219e-01
37.925060	1.033864	dec_choice	1.033864	16.000000	n/a	1	-1.692708e-01	-1.692708e-01
37.925060	1.033864	dec_social_accept	1.033864	16.000000	n/a	1	-1.699219e-01	-1.699219e-01
37.925060	1.033864	dec_accept	1.033864	16.000000	n/a	1	-1.692708e-01	-1.692708e-01
37.925060	1.033864	dec_social_low	1.033864	16.000000	n/a	1	-1.692708e-01	-1.692708e-01
37.925060	1.033864	dec_social_accept_low	1.033864	16.000000	n/a	1	-1.692708e-01	-1.692708e-01
44.758930	0.799974	dec_social_choice	0.799974	32.000000	n/a	3	-1.386719e-01	-1.386719e-01
44.758930	0.799974	dec_choice	0.799974	32.000000	n/a	3	-1.380208e-01	-1.380208e-01
44.758930	0.799974	dec_social_accept	0.799974	32.000000	n/a	3	-1.386719e-01	-1.386719e-01
44.758930	0.799974	dec_accept	0.799974	32.000000	n/a	3	-1.380208e-01	-1.380208e-01
44.758930	0.799974	dec_social_low	0.799974	32.000000	n/a	3	-1.380208e-01	-1.380208e-01
44.758930	0.799974	dec_social_accept_low	0.799974	32.000000	n/a	3	-1.380208e-01	-1.380208e-01
52.408905	1.332726	dec_social_choice	1.332726	32.000000	n/a	3	-1.386719e-01	-1.386719e-01
52.408905	1.332726	dec_choice	1.332726	32.000000	n/a	3	-1.380208e-01	-1.380208e-01
52.408905	1.332726	dec_social_accept	1.332726	32.000000	n/a	3	-1.386719e-01	-1.386719e-01
52.408905	1.332726	dec_accept	1.332726	32.000000	n/a	3	-1.380208e-01	-1.380208e-01
52.408905	1.332726	dec_social_accept_low	1.332726	32.000000	n/a	3	-1.380208e-01	-1.380208e-01
60.059036	1.349591	dec_nonsocial_choice	1.349591	16.000000	n/a	1	-1.699219e-01	-1.699219e-01
60.059036	1.349591	dec_choice	1.349591	16.000000	n/a	1	-1.705729e-01	-1.705729e-01
60.059036	1.349591	dec_nonsocial_accept	1.349591	16.000000	n/a	1	-1.699219e-01	-1.699219e-01
60.059036	1.349591	dec_accept	1.349591	16.000000	n/a	1	-1.705729e-01	-1.705729e-01
60.059036	1.349591	dec_nonsocial_low	1.349591	16.000000	n/a	1	-1.705729e-01	-1.705729e-01
60.059036	1.349591	dec_nonsocial_accept_low	1.349591	16.000000	n/a	1	-1.705729e-01	-1.705729e-01
66.891960	1.216436	dec_social_choice	1.216436	32.000000	n/a	8	1.757812e-02	1.757812e-02
66.891960	1.216436	dec_choice	1.216436	32.000000	n/a	8	1.822917e-02	1.822917e-02
66.891960	1.216436	dec_social_accept	1.216436	32.000000	n/a	8	1.757812e-02	1.757812e-02
66.891960	1.216436	dec_accept	1.216436	32.000000	n/a	8	1.822917e-02	1.822917e-02
66.891960	1.216436	dec_social_high	1.216436	32.000000	n/a	8	1.822917e-02	1.822917e-02
66.891960	1.216436	dec_social_accept_high	1.216436	32.000000	n/a	8	1.822917e-02	1.822917e-02
77.759900	0.815014	dec_social_choice	0.815014	16.000000	n/a	1	-1.699219e-01	-1.699219e-01
77.759900	0.815014	dec_choice	0.815014	16.000000	n/a	1	-1.692708e-01	-1.692708e-01
77.759900	0.815014	dec_social_accept	0.815014	16.000000	n/a	1	-1.699219e-01	-1.699219e-01
77.759900	0.815014	dec_accept	0.815014	16.000000	n/a	1	-1.692708e-01	-1.692708e-01
77.759900	0.815014	dec_social_low	0.815014	16.000000	n/a	1	-1.692708e-01	-1.692708e-01
77.759900	0.815014	dec_social_accept_low	0.815014	16.000000	n/a	1	-1.692708e-01	-1.692708e-01
84.591960	1.000890	dec_nonsocial_choice	1.000890	16.000000	n/a	2	-1.074219e-01	-1.074219e-01
84.591960	1.000890	dec_choice	1.000890	16.000000	n/a	2	-1.080729e-01	-1.080729e-01
84.591960	1.000890	dec_nonsocial_accept	1.000890	16.000000	n/a	2	-1.074219e-01	-1.074219e-01
84.591960	1.000890	dec_accept	1.000890	16.000000	n/a	2	-1.080729e-01	-1.080729e-01
84.591960	1.000890	dec_nonsocial_low	1.000890	16.000000	n/a	2	-1.080729e-01	-1.080729e-01
84.591960	1.000890	dec_nonsocial_accept_low	1.000890	16.000000	n/a	2	-1.080729e-01	-1.080729e-01
91.426056	1.249275	dec_nonsocial_choice	1.249275	32.000000	n/a	3	-1.386719e-01	-1.386719e-01
91.426056	1.249275	dec_choice	1.249275	32.000000	n/a	3	-1.393229e-01	-1.393229e-01
91.426056	1.249275	dec_nonsocial_accept	1.249275	32.000000	n/a	3	-1.386719e-01	-1.386719e-01
91.426056	1.249275	dec_accept	1.249275	32.000000	n/a	3	-1.393229e-01	-1.393229e-01
91.426056	1.249275	dec_nonsocial_accept_low	1.249275	32.000000	n/a	3	-1.380208e-01	-1.380208e-01
99.075820	0.932543	dec_social_choice	0.932543	16.000000	n/a	2	-1.074219e-01	-1.074219e-01
99.075820	0.932543	dec_choice	0.932543	16.000000	n/a	2	-1.067708e-01	-1.067708e-01
99.075820	0.932543	dec_social_accept	0.932543	16.000000	n/a	2	-1.074219e-01	-1.074219e-01
99.075820	0.932543	dec_accept	0.932543	16.000000	n/a	2	-1.067708e-01	-1.067708e-01
99.075820	0.932543	dec_social_accept_low	0.932543	16.000000	n/a	2	-1.067708e-01	-1.067708e-01
108.342020	0.816154	dec_nonsocial_choice	0.816154	16.000000	n/a	1	-1.699219e-01	-1.699219e-01
108.342020	0.816154	dec_choice	0.816154	16.000000	n/a	1	-1.705729e-01	-1.705729e-01
108.342020	0.816154	dec_nonsocial_accept	0.816154	16.000000	n/a	1	-1.699219e-01	-1.699219e-01
108.342020	0.816154	dec_accept	0.816154	16.000000	n/a	1	-1.705729e-01	-1.705729e-01
108.342020	0.816154	dec_nonsocial_low	0.816154	16.000000	n/a	1	-1.705729e-01	-1.705729e-01
108.342020	0.816154	dec_nonsocial_accept_low	0.816154	16.000000	n/a	1	-1.705729e-01	-1.705729e-01
115.175010	0.967087	dec_social_choice	0.967087	16.000000	n/a	4	1.757812e-02	1.757812e-02
115.175010	0.967087	dec_choice	0.967087	16.000000	n/a	4	1.822917e-02	1.822917e-02
115.175010	0.967087	dec_social_accept	0.967087	16.000000	n/a	4	1.757812e-02	1.757812e-02
115.175010	0.967087	dec_accept	0.967087	16.000000	n/a	4	1.822917e-02	1.822917e-02
115.175010	0.967087	dec_social_high	0.967087	16.000000	n/a	4	1.822917e-02	1.822917e-02
115.175010	0.967087	dec_social_accept_high	0.967087	16.000000	n/a	4	1.822917e-02	1.822917e-02
124.425354	1.249342	dec_social_choice	1.249342	16.000000	n/a	4	1.757812e-02	1.757812e-02
124.425354	1.249342	dec_choice	1.249342	16.000000	n/a	4	1.822917e-02	1.822917e-02
124.425354	1.249342	dec_social_accept	1.249342	16.000000	n/a	4	1.757812e-02	1.757812e-02
124.425354	1.249342	dec_accept	1.249342	16.000000	n/a	4	1.822917e-02	1.822917e-02
124.425354	1.249342	dec_social_accept_high	1.249342	16.000000	n/a	4	1.822917e-02	1.822917e-02
131.258260	0.650391	dec_social_choice	0.650391	16.000000	n/a	2	-1.074219e-01	-1.074219e-01
131.258260	0.650391	dec_choice	0.650391	16.000000	n/a	2	-1.067708e-01	-1.067708e-01
131.258260	0.650391	dec_social_accept	0.650391	16.000000	n/a	2	-1.074219e-01	-1.074219e-01
131.258260	0.650391	dec_accept	0.650391	16.000000	n/a	2	-1.067708e-01	-1.067708e-01
131.258260	0.650391	dec_social_low	0.650391	16.000000	n/a	2	-1.067708e-01	-1.067708e-01
131.258260	0.650391	dec_social_accept_low	0.650391	16.000000	n/a	2	-1.067708e-01	-1.067708e-01
138.892410	1.849327	dec_nonsocial_choice	1.849327	32.000000	n/a	8	1.757812e-02	1.757812e-02
138.892410	1.849327	dec_choice	1.849327	32.000000	n/a	8	1.692708e-02	1.692708e-02
138.892410	1.849327	dec_nonsocial_accept	1.849327	32.000000	n/a	8	1.757812e-02	1.757812e-02
138.892410	1.849327	dec_accept	1.849327	32.000000	n/a	8	1.692708e-02	1.692708e-02
138.892410	1.849327	dec_nonsocial_high	1.849327	32.000000	n/a	8	1.692708e-02	1.692708e-02
138.892410	1.849327	dec_nonsocial_accept_high	1.849327	32.000000	n/a	8	1.692708e-02	1.692708e-02
148.157700	1.434441	dec_nonsocial_choice	1.434441	32.000000	n/a	16	2.675781e-01	2.675781e-01
148.157700	1.434441	dec_choice	1.434441	32.000000	n/a	16	2.669271e-01	2.669271e-01
148.157700	1.434441	dec_nonsocial_accept	1.434441	32.000000	n/a	16	2.675781e-01	2.675781e-01
148.157700	1.434441	dec_accept	1.434441	32.000000	n/a	16	2.669271e-01	2.669271e-01
148.157700	1.434441	dec_nonsocial_accept_high	1.434441	32.000000	n/a	16	2.682292e-01	2.682292e-01
154.992750	0.999378	dec_nonsocial_choice	0.999378	16.000000	n/a	8	2.675781e-01	2.675781e-01
154.992750	0.999378	dec_choice	0.999378	16.000000	n/a	8	2.669271e-01	2.669271e-01
154.992750	0.999378	dec_nonsocial_accept	0.999378	16.000000	n/a	8	2.675781e-01	2.675781e-01
154.992750	0.999378	dec_accept	0.999378	16.000000	n/a	8	2.669271e-01	2.669271e-01
154.992750	0.999378	dec_nonsocial_high	0.999378	16.000000	n/a	8	2.669271e-01	2.669271e-01
154.992750	0.999378	dec_nonsocial_accept_high	0.999378	16.000000	n/a	8	2.669271e-01	2.669271e-01
164.258100	1.450620	dec_social_choice	1.450620	16.000000	n/a	2	-1.074219e-01	-1.074219e-01
164.258100	1.450620	dec_choice	1.450620	16.000000	n/a	2	-1.067708e-01	-1.067708e-01
164.258100	1.450620	dec_social_accept	1.450620	16.000000	n/a	2	-1.074219e-01	-1.074219e-01
164.258100	1.450620	dec_accept	1.450620	16.000000	n/a	2	-1.067708e-01	-1.067708e-01
164.258100	1.450620	dec_social_accept_low	1.450620	16.000000	n/a	2	-1.067708e-01	-1.067708e-01
175.124940	0.666630	dec_nonsocial_choice	0.666630	32.000000	n/a	16	2.675781e-01	2.675781e-01
175.124940	0.666630	dec_choice	0.666630	32.000000	n/a	16	2.669271e-01	2.669271e-01
175.124940	0.666630	dec_nonsocial_accept	0.666630	32.000000	n/a	16	2.675781e-01	2.675781e-01
175.124940	0.666630	dec_accept	0.666630	32.000000	n/a	16	2.669271e-01	2.669271e-01
175.124940	0.666630	dec_nonsocial_accept_high	0.666630	32.000000	n/a	16	2.682292e-01	2.682292e-01
184.374050	0.817941	dec_social_choice	0.817941	32.000000	n/a	16	2.675781e-01	2.675781e-01
184.374050	0.817941	dec_choice	0.817941	32.000000	n/a	16	2.682292e-01	2.682292e-01
184.374050	0.817941	dec_social_accept	0.817941	32.000000	n/a	16	2.675781e-01	2.675781e-01
184.374050	0.817941	dec_accept	0.817941	32.000000	n/a	16	2.682292e-01	2.682292e-01
184.374050	0.817941	dec_social_high	0.817941	32.000000	n/a	16	2.682292e-01	2.682292e-01
184.374050	0.817941	dec_social_accept_high	0.817941	32.000000	n/a	16	2.682292e-01	2.682292e-01
191.208950	0.782643	dec_social_choice	0.782643	16.000000	n/a	1	-1.699219e-01	-1.699219e-01
191.208950	0.782643	dec_choice	0.782643	16.000000	n/a	1	-1.692708e-01	-1.692708e-01
191.208950	0.782643	dec_social_accept	0.782643	16.000000	n/a	1	-1.699219e-01	-1.699219e-01
191.208950	0.782643	dec_accept	0.782643	16.000000	n/a	1	-1.692708e-01	-1.692708e-01
191.208950	0.782643	dec_social_low	0.782643	16.000000	n/a	1	-1.692708e-01	-1.692708e-01
191.208950	0.782643	dec_social_accept_low	0.782643	16.000000	n/a	1	-1.692708e-01	-1.692708e-01
198.858020	0.866621	dec_nonsocial_choice	0.866621	16.000000	n/a	1	-1.699219e-01	-1.699219e-01
198.858020	0.866621	dec_choice	0.866621	16.000000	n/a	1	-1.705729e-01	-1.705729e-01
198.858020	0.866621	dec_nonsocial_accept	0.866621	16.000000	n/a	1	-1.699219e-01	-1.699219e-01
198.858020	0.866621	dec_accept	0.866621	16.000000	n/a	1	-1.705729e-01	-1.705729e-01
198.858020	0.866621	dec_nonsocial_low	0.866621	16.000000	n/a	1	-1.705729e-01	-1.705729e-01
198.858020	0.866621	dec_nonsocial_accept_low	0.866621	16.000000	n/a	1	-1.705729e-01	-1.705729e-01
205.691910	0.815703	dec_nonsocial_choice	0.815703	16.000000	n/a	8	2.675781e-01	2.675781e-01
205.691910	0.815703	dec_choice	0.815703	16.000000	n/a	8	2.669271e-01	2.669271e-01
205.691910	0.815703	dec_nonsocial_accept	0.815703	16.000000	n/a	8	2.675781e-01	2.675781e-01
205.691910	0.815703	dec_accept	0.815703	16.000000	n/a	8	2.669271e-01	2.669271e-01
205.691910	0.815703	dec_nonsocial_high	0.815703	16.000000	n/a	8	2.669271e-01	2.669271e-01
205.691910	0.815703	dec_nonsocial_accept_high	0.815703	16.000000	n/a	8	2.669271e-01	2.669271e-01
218.173970	1.367725	dec_social_choice	1.367725	32.000000	n/a	8	1.757812e-02	1.757812e-02
218.173970	1.367725	dec_choice	1.367725	32.000000	n/a	8	1.822917e-02	1.822917e-02
218.173970	1.367725	dec_social_accept	1.367725	32.000000	n/a	8	1.757812e-02	1.757812e-02
218.173970	1.367725	dec_accept	1.367725	32.000000	n/a	8	1.822917e-02	1.822917e-02
218.173970	1.367725	dec_social_accept_high	1.367725	32.000000	n/a	8	1.822917e-02	1.822917e-02
225.008640	0.983279	dec_social_choice	0.983279	16.000000	n/a	4	1.757812e-02	1.757812e-02
225.008640	0.983279	dec_choice	0.983279	16.000000	n/a	4	1.822917e-02	1.822917e-02
225.008640	0.983279	dec_social_accept	0.983279	16.000000	n/a	4	1.757812e-02	1.757812e-02
225.008640	0.983279	dec_accept	0.983279	16.000000	n/a	4	1.822917e-02	1.822917e-02
225.008640	0.983279	dec_social_high	0.983279	16.000000	n/a	4	1.822917e-02	1.822917e-02
225.008640	0.983279	dec_social_accept_high	0.983279	16.000000	n/a	4	1.822917e-02	1.822917e-02
231.841370	1.666100	dec_social_choice	1.666100	16.000000	n/a	8	2.675781e-01	2.675781e-01
231.841370	1.666100	dec_choice	1.666100	16.000000	n/a	8	2.682292e-01	2.682292e-01
231.841370	1.666100	dec_social_accept	1.666100	16.000000	n/a	8	2.675781e-01	2.675781e-01
231.841370	1.666100	dec_accept	1.666100	16.000000	n/a	8	2.682292e-01	2.682292e-01
231.841370	1.666100	dec_social_accept_high	1.666100	16.000000	n/a	8	2.682292e-01	2.682292e-01
238.675420	0.932731	dec_nonsocial_choice	0.932731	16.000000	n/a	2	-1.074219e-01	-1.074219e-01
238.675420	0.932731	dec_choice	0.932731	16.000000	n/a	2	-1.080729e-01	-1.080729e-01
238.675420	0.932731	dec_nonsocial_accept	0.932731	16.000000	n/a	2	-1.074219e-01	-1.074219e-01
238.675420	0.932731	dec_accept	0.932731	16.000000	n/a	2	-1.080729e-01	-1.080729e-01
238.675420	0.932731	dec_nonsocial_accept_low	0.932731	16.000000	n/a	2	-1.067708e-01	-1.067708e-01
246.325060	1.015941	dec_nonsocial_choice	1.015941	32.000000	n/a	8	1.757812e-02	1.757812e-02
246.325060	1.015941	dec_choice	1.015941	32.000000	n/a	8	1.692708e-02	1.692708e-02
246.325060	1.015941	dec_nonsocial_accept	1.015941	32.000000	n/a	8	1.757812e-02	1.757812e-02
246.325060	1.015941	dec_accept	1.015941	32.000000	n/a	8	1.692708e-02	1.692708e-02
246.325060	1.015941	dec_nonsocial_high	1.015941	32.000000	n/a	8	1.692708e-02	1.692708e-02
246.325060	1.015941	dec_nonsocial_accept_high	1.015941	32.000000	n/a	8	1.692708e-02	1.692708e-02
253.158050	1.183873	dec_nonsocial_choice	1.183873	32.000000	n/a	16	2.675781e-01	2.675781e-01
253.158050	1.183873	dec_choice	1.183873	32.000000	n/a	16	2.669271e-01	2.669271e-01
253.158050	1.183873	dec_nonsocial_accept	1.183873	32.000000	n/a	16	2.675781e-01	2.675781e-01
253.158050	1.183873	dec_accept	1.183873	32.000000	n/a	16	2.669271e-01	2.669271e-01
253.158050	1.183873	dec_nonsocial_high	1.183873	32.000000	n/a	16	2.669271e-01	2.669271e-01
253.158050	1.183873	dec_nonsocial_accept_high	1.183873	32.000000	n/a	16	2.669271e-01	2.669271e-01
259.991180	1.000657	dec_nonsocial_choice	1.000657	32.000000	n/a	8	1.757812e-02	1.757812e-02
259.991180	1.000657	dec_choice	1.000657	32.000000	n/a	8	1.692708e-02	1.692708e-02
259.991180	1.000657	dec_nonsocial_accept	1.000657	32.000000	n/a	8	1.757812e-02	1.757812e-02
259.991180	1.000657	dec_accept	1.000657	32.000000	n/a	8	1.692708e-02	1.692708e-02
259.991180	1.000657	dec_nonsocial_accept_high	1.000657	32.000000	n/a	8	1.822917e-02	1.822917e-02
267.625030	0.717131	dec_nonsocial_choice	0.717131	16.000000	n/a	2	-1.074219e-01	-1.074219e-01
267.625030	0.717131	dec_choice	0.717131	16.000000	n/a	2	-1.080729e-01	-1.080729e-01
267.625030	0.717131	dec_nonsocial_accept	0.717131	16.000000	n/a	2	-1.074219e-01	-1.074219e-01
267.625030	0.717131	dec_accept	0.717131	16.000000	n/a	2	-1.080729e-01	-1.080729e-01
267.625030	0.717131	dec_nonsocial_low	0.717131	16.000000	n/a	2	-1.080729e-01	-1.080729e-01
267.625030	0.717131	dec_nonsocial_accept_low	0.717131	16.000000	n/a	2	-1.080729e-01	-1.080729e-01
274.458200	0.699677	dec_social_choice	0.699677	32.000000	n/a	2	-1.699219e-01	-1.699219e-01
274.458200	0.699677	dec_choice	0.699677	32.000000	n/a	2	-1.692708e-01	-1.692708e-01
274.458200	0.699677	dec_social_accept	0.699677	32.000000	n/a	2	-1.699219e-01	-1.699219e-01
274.458200	0.699677	dec_accept	0.699677	32.000000	n/a	2	-1.692708e-01	-1.692708e-01
274.458200	0.699677	dec_social_accept_low	0.699677	32.000000	n/a	2	-1.692708e-01	-1.692708e-01
281.291350	0.766383	dec_nonsocial_choice	0.766383	16.000000	n/a	8	2.675781e-01	2.675781e-01
281.291350	0.766383	dec_choice	0.766383	16.000000	n/a	8	2.669271e-01	2.669271e-01
281.291350	0.766383	dec_nonsocial_accept	0.766383	16.000000	n/a	8	2.675781e-01	2.675781e-01
281.291350	0.766383	dec_accept	0.766383	16.000000	n/a	8	2.669271e-01	2.669271e-01
281.291350	0.766383	dec_nonsocial_accept_high	0.766383	16.000000	n/a	8	2.682292e-01	2.682292e-01
288.124150	1.067532	dec_social_choice	1.067532	16.000000	n/a	2	-1.074219e-01	-1.074219e-01
288.124150	1.067532	dec_choice	1.067532	16.000000	n/a	2	-1.067708e-01	-1.067708e-01
288.124150	1.067532	dec_social_accept	1.067532	16.000000	n/a	2	-1.074219e-01	-1.074219e-01
288.124150	1.067532	dec_accept	1.067532	16.000000	n/a	2	-1.067708e-01	-1.067708e-01
288.124150	1.067532	dec_social_accept_low	1.067532	16.000000	n/a	2	-1.067708e-01	-1.067708e-01
294.958440	1.165973	dec_nonsocial_choice	1.165973	32.000000	n/a	2	-1.699219e-01	-1.699219e-01
294.958440	1.165973	dec_choice	1.165973	32.000000	n/a	2	-1.705729e-01	-1.705729e-01
294.958440	1.165973	dec_nonsocial_accept	1.165973	32.000000	n/a	2	-1.699219e-01	-1.699219e-01
294.958440	1.165973	dec_accept	1.165973	32.000000	n/a	2	-1.705729e-01	-1.705729e-01
294.958440	1.165973	dec_nonsocial_low	1.165973	32.000000	n/a	2	-1.705729e-01	-1.705729e-01
294.958440	1.165973	dec_nonsocial_accept_low	1.165973	32.000000	n/a	2	-1.705729e-01	-1.705729e-01
301.791870	1.050059	dec_nonsocial_choice	1.050059	32.000000	n/a	8	1.757812e-02	1.757812e-02
301.791870	1.050059	dec_choice	1.050059	32.000000	n/a	8	1.692708e-02	1.692708e-02
301.791870	1.050059	dec_nonsocial_accept	1.050059	32.000000	n/a	8	1.757812e-02	1.757812e-02
301.791870	1.050059	dec_accept	1.050059	32.000000	n/a	8	1.692708e-02	1.692708e-02
301.791870	1.050059	dec_nonsocial_high	1.050059	32.000000	n/a	8	1.692708e-02	1.692708e-02
301.791870	1.050059	dec_nonsocial_accept_high	1.050059	32.000000	n/a	8	1.692708e-02	1.692708e-02
312.657800	0.616524	dec_social_choice	0.616524	32.000000	n/a	16	2.675781e-01	2.675781e-01
312.657800	0.616524	dec_choice	0.616524	32.000000	n/a	16	2.682292e-01	2.682292e-01
312.657800	0.616524	dec_social_accept	0.616524	32.000000	n/a	16	2.675781e-01	2.675781e-01
312.657800	0.616524	dec_accept	0.616524	32.000000	n/a	16	2.682292e-01	2.682292e-01
312.657800	0.616524	dec_social_accept_high	0.616524	32.000000	n/a	16	2.682292e-01	2.682292e-01
319.492550	0.732138	dec_nonsocial_choice	0.732138	32.000000	n/a	8	1.757812e-02	1.757812e-02
319.492550	0.732138	dec_choice	0.732138	32.000000	n/a	8	1.692708e-02	1.692708e-02
319.492550	0.732138	dec_nonsocial_accept	0.732138	32.000000	n/a	8	1.757812e-02	1.757812e-02
319.492550	0.732138	dec_accept	0.732138	32.000000	n/a	8	1.692708e-02	1.692708e-02
319.492550	0.732138	dec_nonsocial_accept_high	0.732138	32.000000	n/a	8	1.822917e-02	1.822917e-02
326.324980	0.600099	dec_nonsocial_choice	0.600099	32.000000	n/a	8	1.757812e-02	1.757812e-02
326.324980	0.600099	dec_choice	0.600099	32.000000	n/a	8	1.692708e-02	1.692708e-02
326.324980	0.600099	dec_nonsocial_accept	0.600099	32.000000	n/a	8	1.757812e-02	1.757812e-02
326.324980	0.600099	dec_accept	0.600099	32.000000	n/a	8	1.692708e-02	1.692708e-02
326.324980	0.600099	dec_nonsocial_accept_high	0.600099	32.000000	n/a	8	1.822917e-02	1.822917e-02
333.975100	0.782132	dec_nonsocial_choice	0.782132	32.000000	n/a	2	-1.699219e-01	-1.699219e-01
333.975100	0.782132	dec_choice	0.782132	32.000000	n/a	2	-1.705729e-01	-1.705729e-01
333.975100	0.782132	dec_nonsocial_accept	0.782132	32.000000	n/a	2	-1.699219e-01	-1.699219e-01
333.975100	0.782132	dec_accept	0.782132	32.000000	n/a	2	-1.705729e-01	-1.705729e-01
333.975100	0.782132	dec_nonsocial_accept_low	0.782132	32.000000	n/a	2	-1.692708e-01	-1.692708e-01
340.807980	1.583804	dec_social_choice	1.583804	16.000000	n/a	1	-1.699219e-01	-1.699219e-01
340.807980	1.583804	dec_choice	1.583804	16.000000	n/a	1	-1.692708e-01	-1.692708e-01
340.807980	1.583804	dec_social_accept	1.583804	16.000000	n/a	1	-1.699219e-01	-1.699219e-01
340.807980	1.583804	dec_accept	1.583804	16.000000	n/a	1	-1.692708e-01	-1.692708e-01
340.807980	1.583804	dec_social_accept_low	1.583804	16.000000	n/a	1	-1.692708e-01	-1.692708e-01
348.458980	0.748928	dec_nonsocial_choice	0.748928	16.000000	n/a	2	-1.074219e-01	-1.074219e-01
348.458980	0.748928	dec_choice	0.748928	16.000000	n/a	2	-1.080729e-01	-1.080729e-01
348.458980	0.748928	dec_nonsocial_accept	0.748928	16.000000	n/a	2	-1.074219e-01	-1.074219e-01
348.458980	0.748928	dec_accept	0.748928	16.000000	n/a	2	-1.080729e-01	-1.080729e-01
348.458980	0.748928	dec_nonsocial_accept_low	0.748928	16.000000	n/a	2	-1.067708e-01	-1.067708e-01
356.109160	0.733211	dec_nonsocial_choice	0.733211	32.000000	n/a	2	-1.699219e-01	-1.699219e-01
356.109160	0.733211	dec_choice	0.733211	32.000000	n/a	2	-1.705729e-01	-1.705729e-01
356.109160	0.733211	dec_nonsocial_accept	0.733211	32.000000	n/a	2	-1.699219e-01	-1.699219e-01
356.109160	0.733211	dec_accept	0.733211	32.000000	n/a	2	-1.705729e-01	-1.705729e-01
356.109160	0.733211	dec_nonsocial_low	0.733211	32.000000	n/a	2	-1.705729e-01	-1.705729e-01
356.109160	0.733211	dec_nonsocial_accept_low	0.733211	32.000000	n/a	2	-1.705729e-01	-1.705729e-01
365.357060	0.984056	dec_social_choice	0.984056	16.000000	n/a	4	1.757812e-02	1.757812e-02
365.357060	0.984056	dec_choice	0.984056	16.000000	n/a	4	1.822917e-02	1.822917e-02
365.357060	0.984056	dec_social_accept	0.984056	16.000000	n/a	4	1.757812e-02	1.757812e-02
365.357060	0.984056	dec_accept	0.984056	16.000000	n/a	4	1.822917e-02	1.822917e-02
365.357060	0.984056	dec_social_accept_high	0.984056	16.000000	n/a	4	1.822917e-02	1.822917e-02
372.192020	1.015624	dec_social_choice	1.015624	32.000000	n/a	16	2.675781e-01	2.675781e-01
372.192020	1.015624	dec_choice	1.015624	32.000000	n/a	16	2.682292e-01	2.682292e-01
372.192020	1.015624	dec_social_accept	1.015624	32.000000	n/a	16	2.675781e-01	2.675781e-01
372.192020	1.015624	dec_accept	1.015624	32.000000	n/a	16	2.682292e-01	2.682292e-01
372.192020	1.015624	dec_social_accept_high	1.015624	32.000000	n/a	16	2.682292e-01	2.682292e-01
