onset	duration	trial_type	response_time	Endowment	Endowment_pmod	Decision	Decision_pmod	Offer_pmod
4.581914	2	cue_social	n/a	16	-7	n/a	n/a	n/a
4.581914	2	cue_social_low	n/a	16	-8	n/a	n/a	n/a
12.206575	2	cue_social	n/a	16	-7	n/a	n/a	n/a
12.206575	2	cue_social_low	n/a	16	-8	n/a	n/a	n/a
19.051113	2	cue_social	n/a	16	-7	n/a	n/a	n/a
19.051113	2	cue_social_low	n/a	16	-8	n/a	n/a	n/a
25.881975	2	cue_social	n/a	32	9	n/a	n/a	n/a
25.881975	2	cue_social_high	n/a	32	8	n/a	n/a	n/a
33.530067	2	cue_social	n/a	16	-7	n/a	n/a	n/a
33.530067	2	cue_social_low	n/a	16	-8	n/a	n/a	n/a
40.304585	2	cue_nonsocial	n/a	32	8	n/a	n/a	n/a
40.304585	2	cue_nonsocial_high	n/a	32	9	n/a	n/a	n/a
47.954490	2	cue_nonsocial	n/a	32	8	n/a	n/a	n/a
47.954490	2	cue_nonsocial_high	n/a	32	9	n/a	n/a	n/a
54.787697	2	cue_nonsocial	n/a	16	-8	n/a	n/a	n/a
54.787697	2	cue_nonsocial_low	n/a	16	-7	n/a	n/a	n/a
64.102970	2	cue_social	n/a	16	-7	n/a	n/a	n/a
64.102970	2	cue_social_low	n/a	16	-8	n/a	n/a	n/a
70.962510	2	cue_social	n/a	16	-7	n/a	n/a	n/a
70.962510	2	cue_social_low	n/a	16	-8	n/a	n/a	n/a
78.590470	2	cue_social	n/a	32	9	n/a	n/a	n/a
78.590470	2	cue_social_high	n/a	32	8	n/a	n/a	n/a
85.370900	2	cue_nonsocial	n/a	16	-8	n/a	n/a	n/a
85.370900	2	cue_nonsocial_low	n/a	16	-7	n/a	n/a	n/a
93.066696	2	cue_social	n/a	16	-7	n/a	n/a	n/a
93.066696	2	cue_social_low	n/a	16	-8	n/a	n/a	n/a
102.350720	2	cue_social	n/a	16	-7	n/a	n/a	n/a
102.350720	2	cue_social_low	n/a	16	-8	n/a	n/a	n/a
109.104450	2	cue_nonsocial	n/a	32	8	n/a	n/a	n/a
109.104450	2	cue_nonsocial_high	n/a	32	9	n/a	n/a	n/a
116.754260	2	cue_nonsocial	n/a	32	8	n/a	n/a	n/a
116.754260	2	cue_nonsocial_high	n/a	32	9	n/a	n/a	n/a
126.020900	2	cue_nonsocial	n/a	32	8	n/a	n/a	n/a
126.020900	2	cue_nonsocial_high	n/a	32	9	n/a	n/a	n/a
132.854340	2	cue_nonsocial	n/a	16	-8	n/a	n/a	n/a
132.854340	2	cue_nonsocial_low	n/a	16	-7	n/a	n/a	n/a
139.775270	2	cue_social	n/a	32	9	n/a	n/a	n/a
139.775270	2	cue_social_high	n/a	32	8	n/a	n/a	n/a
147.397890	2	cue_social	n/a	32	9	n/a	n/a	n/a
147.397890	2	cue_social_high	n/a	32	8	n/a	n/a	n/a
154.280360	2	cue_social	n/a	16	-7	n/a	n/a	n/a
154.280360	2	cue_social_low	n/a	16	-8	n/a	n/a	n/a
165.037230	2	cue_nonsocial	n/a	16	-8	n/a	n/a	n/a
165.037230	2	cue_nonsocial_low	n/a	16	-7	n/a	n/a	n/a
175.903630	2	cue_nonsocial	n/a	32	8	n/a	n/a	n/a
175.903630	2	cue_nonsocial_high	n/a	32	9	n/a	n/a	n/a
183.598140	2	cue_social	n/a	16	-7	n/a	n/a	n/a
183.598140	2	cue_social_low	n/a	16	-8	n/a	n/a	n/a
190.387370	2	cue_nonsocial	n/a	16	-8	n/a	n/a	n/a
190.387370	2	cue_nonsocial_low	n/a	16	-7	n/a	n/a	n/a
197.281080	2	cue_social	n/a	16	-7	n/a	n/a	n/a
197.281080	2	cue_social_low	n/a	16	-8	n/a	n/a	n/a
204.111220	2	cue_social	n/a	32	9	n/a	n/a	n/a
204.111220	2	cue_social_high	n/a	32	8	n/a	n/a	n/a
210.887300	2	cue_nonsocial	n/a	32	8	n/a	n/a	n/a
210.887300	2	cue_nonsocial_high	n/a	32	9	n/a	n/a	n/a
217.720630	2	cue_nonsocial	n/a	16	-8	n/a	n/a	n/a
217.720630	2	cue_nonsocial_low	n/a	16	-7	n/a	n/a	n/a
225.406020	2	cue_social	n/a	32	9	n/a	n/a	n/a
225.406020	2	cue_social_high	n/a	32	8	n/a	n/a	n/a
236.237170	2	cue_nonsocial	n/a	32	8	n/a	n/a	n/a
236.237170	2	cue_nonsocial_high	n/a	32	9	n/a	n/a	n/a
243.070540	2	cue_nonsocial	n/a	16	-8	n/a	n/a	n/a
243.070540	2	cue_nonsocial_low	n/a	16	-7	n/a	n/a	n/a
249.965350	2	cue_social	n/a	32	9	n/a	n/a	n/a
249.965350	2	cue_social_high	n/a	32	8	n/a	n/a	n/a
256.736800	2	cue_nonsocial	n/a	32	8	n/a	n/a	n/a
256.736800	2	cue_nonsocial_high	n/a	32	9	n/a	n/a	n/a
263.571260	2	cue_nonsocial	n/a	32	8	n/a	n/a	n/a
263.571260	2	cue_nonsocial_high	n/a	32	9	n/a	n/a	n/a
276.053680	2	cue_nonsocial	n/a	16	-8	n/a	n/a	n/a
276.053680	2	cue_nonsocial_low	n/a	16	-7	n/a	n/a	n/a
282.948600	2	cue_social	n/a	32	9	n/a	n/a	n/a
282.948600	2	cue_social_high	n/a	32	8	n/a	n/a	n/a
290.580260	2	cue_social	n/a	32	9	n/a	n/a	n/a
290.580260	2	cue_social_high	n/a	32	8	n/a	n/a	n/a
297.423830	2	cue_social	n/a	32	9	n/a	n/a	n/a
297.423830	2	cue_social_high	n/a	32	8	n/a	n/a	n/a
305.012360	2	cue_nonsocial	n/a	16	-8	n/a	n/a	n/a
305.012360	2	cue_nonsocial_low	n/a	16	-7	n/a	n/a	n/a
314.331050	2	cue_social	n/a	32	9	n/a	n/a	n/a
314.331050	2	cue_social_high	n/a	32	8	n/a	n/a	n/a
323.600070	2	cue_social	n/a	16	-7	n/a	n/a	n/a
323.600070	2	cue_social_low	n/a	16	-8	n/a	n/a	n/a
332.803600	2	cue_nonsocial	n/a	32	8	n/a	n/a	n/a
332.803600	2	cue_nonsocial_high	n/a	32	9	n/a	n/a	n/a
339.735100	2	cue_social	n/a	16	-7	n/a	n/a	n/a
339.735100	2	cue_social_low	n/a	16	-8	n/a	n/a	n/a
347.287050	2	cue_nonsocial	n/a	16	-8	n/a	n/a	n/a
347.287050	2	cue_nonsocial_low	n/a	16	-7	n/a	n/a	n/a
354.120270	2	cue_nonsocial	n/a	32	8	n/a	n/a	n/a
354.120270	2	cue_nonsocial_high	n/a	32	9	n/a	n/a	n/a
361.770000	2	cue_nonsocial	n/a	16	-8	n/a	n/a	n/a
361.770000	2	cue_nonsocial_low	n/a	16	-7	n/a	n/a	n/a
368.603270	2	cue_nonsocial	n/a	16	-8	n/a	n/a	n/a
368.603270	2	cue_nonsocial_low	n/a	16	-7	n/a	n/a	n/a
6.509555	0.783713	dec_social_choice	0.783713	16.000000	n/a	8	2.682292e-01	2.682292e-01
6.509555	0.783713	dec_choice	0.783713	16.000000	n/a	8	2.682292e-01	2.682292e-01
6.509555	0.783713	dec_social_accept	0.783713	16.000000	n/a	8	2.739362e-01	2.739362e-01
6.509555	0.783713	dec_accept	0.783713	16.000000	n/a	8	2.798913e-01	2.798913e-01
6.509555	0.783713	dec_social_accept_high	0.783713	16.000000	n/a	8	2.682292e-01	2.682292e-01
14.159965	0.733364	dec_social_choice	0.733364	16.000000	n/a	2	-1.067708e-01	-1.067708e-01
14.159965	0.733364	dec_choice	0.733364	16.000000	n/a	2	-1.067708e-01	-1.067708e-01
14.159965	0.733364	dec_social_accept	0.733364	16.000000	n/a	2	-1.010638e-01	-1.010638e-01
14.159965	0.733364	dec_accept	0.733364	16.000000	n/a	2	-9.510870e-02	-9.510870e-02
14.159965	0.733364	dec_social_accept_low	0.733364	16.000000	n/a	2	-1.067708e-01	-1.067708e-01
20.995329	0.798500	dec_social_choice	0.798500	16.000000	n/a	2	-1.067708e-01	-1.067708e-01
20.995329	0.798500	dec_choice	0.798500	16.000000	n/a	2	-1.067708e-01	-1.067708e-01
20.995329	0.798500	dec_social_accept	0.798500	16.000000	n/a	2	-1.010638e-01	-1.010638e-01
20.995329	0.798500	dec_accept	0.798500	16.000000	n/a	2	-9.510870e-02	-9.510870e-02
20.995329	0.798500	dec_social_low	0.798500	16.000000	n/a	2	-1.067708e-01	-1.067708e-01
20.995329	0.798500	dec_social_accept_low	0.798500	16.000000	n/a	2	-1.067708e-01	-1.067708e-01
27.826807	0.766507	dec_social_choice	0.766507	32.000000	n/a	3	-1.380208e-01	-1.380208e-01
27.826807	0.766507	dec_choice	0.766507	32.000000	n/a	3	-1.380208e-01	-1.380208e-01
27.826807	0.766507	dec_social_accept	0.766507	32.000000	n/a	3	-1.323138e-01	-1.323138e-01
27.826807	0.766507	dec_accept	0.766507	32.000000	n/a	3	-1.263587e-01	-1.263587e-01
27.826807	0.766507	dec_social_low	0.766507	32.000000	n/a	3	-1.380208e-01	-1.380208e-01
27.826807	0.766507	dec_social_accept_low	0.766507	32.000000	n/a	3	-1.380208e-01	-1.380208e-01
35.477837	0.732458	dec_social_choice	0.732458	16.000000	n/a	4	1.822917e-02	1.822917e-02
35.477837	0.732458	dec_choice	0.732458	16.000000	n/a	4	1.822917e-02	1.822917e-02
35.477837	0.732458	dec_social_accept	0.732458	16.000000	n/a	4	2.393617e-02	2.393617e-02
35.477837	0.732458	dec_accept	0.732458	16.000000	n/a	4	2.989130e-02	2.989130e-02
35.477837	0.732458	dec_social_accept_high	0.732458	16.000000	n/a	4	1.822917e-02	1.822917e-02
42.310497	1.015967	dec_nonsocial_choice	1.015967	32.000000	n/a	8	1.822917e-02	1.822917e-02
42.310497	1.015967	dec_choice	1.015967	32.000000	n/a	8	1.822917e-02	1.822917e-02
42.310497	1.015967	dec_nonsocial_accept	1.015967	32.000000	n/a	8	2.393617e-02	2.393617e-02
42.310497	1.015967	dec_accept	1.015967	32.000000	n/a	8	1.822917e-02	1.822917e-02
42.310497	1.015967	dec_nonsocial_high	1.015967	32.000000	n/a	8	1.822917e-02	1.822917e-02
42.310497	1.015967	dec_nonsocial_accept_high	1.015967	32.000000	n/a	8	1.822917e-02	1.822917e-02
49.960800	0.783003	dec_nonsocial_choice	0.783003	32.000000	n/a	3	-1.380208e-01	-1.380208e-01
49.960800	0.783003	dec_choice	0.783003	32.000000	n/a	3	-1.380208e-01	-1.380208e-01
49.960800	0.783003	dec_nonsocial_accept	0.783003	32.000000	n/a	3	-1.323138e-01	-1.323138e-01
49.960800	0.783003	dec_accept	0.783003	32.000000	n/a	3	-1.380208e-01	-1.380208e-01
49.960800	0.783003	dec_nonsocial_accept_low	0.783003	32.000000	n/a	3	-1.263587e-01	-1.263587e-01
56.793350	0.716369	dec_nonsocial_choice	0.716369	16.000000	n/a	1	-1.692708e-01	-1.692708e-01
56.793350	0.716369	dec_choice	0.716369	16.000000	n/a	1	-1.692708e-01	-1.692708e-01
56.793350	0.716369	dec_nonsocial_accept	0.716369	16.000000	n/a	1	-1.635638e-01	-1.635638e-01
56.793350	0.716369	dec_accept	0.716369	16.000000	n/a	1	-1.692708e-01	-1.692708e-01
56.793350	0.716369	dec_nonsocial_low	0.716369	16.000000	n/a	1	-1.692708e-01	-1.692708e-01
56.793350	0.716369	dec_nonsocial_accept_low	0.716369	16.000000	n/a	1	-1.692708e-01	-1.692708e-01
66.059850	0.800431	dec_social_choice	0.800431	16.000000	n/a	1	-1.692708e-01	-1.692708e-01
66.059850	0.800431	dec_choice	0.800431	16.000000	n/a	1	-1.692708e-01	-1.692708e-01
66.059850	0.800431	dec_social_accept	0.800431	16.000000	n/a	1	-1.635638e-01	-1.635638e-01
66.059850	0.800431	dec_accept	0.800431	16.000000	n/a	1	-1.576087e-01	-1.576087e-01
66.059850	0.800431	dec_social_accept_low	0.800431	16.000000	n/a	1	-1.692708e-01	-1.692708e-01
72.892510	0.783817	dec_social_choice	0.783817	16.000000	n/a	4	1.822917e-02	1.822917e-02
72.892510	0.783817	dec_choice	0.783817	16.000000	n/a	4	1.822917e-02	1.822917e-02
72.892510	0.783817	dec_social_accept	0.783817	16.000000	n/a	4	2.393617e-02	2.393617e-02
72.892510	0.783817	dec_accept	0.783817	16.000000	n/a	4	2.989130e-02	2.989130e-02
72.892510	0.783817	dec_social_high	0.783817	16.000000	n/a	4	1.822917e-02	1.822917e-02
72.892510	0.783817	dec_social_accept_high	0.783817	16.000000	n/a	4	1.822917e-02	1.822917e-02
80.543724	0.949660	dec_social_choice	0.949660	32.000000	n/a	2	-1.692708e-01	-1.692708e-01
80.543724	0.949660	dec_choice	0.949660	32.000000	n/a	2	-1.692708e-01	-1.692708e-01
80.543724	0.949660	dec_social_accept	0.949660	32.000000	n/a	2	-1.635638e-01	-1.635638e-01
80.543724	0.949660	dec_accept	0.949660	32.000000	n/a	2	-1.576087e-01	-1.576087e-01
80.543724	0.949660	dec_social_low	0.949660	32.000000	n/a	2	-1.692708e-01	-1.692708e-01
80.543724	0.949660	dec_social_accept_low	0.949660	32.000000	n/a	2	-1.692708e-01	-1.692708e-01
87.376770	1.033426	dec_nonsocial_choice	1.033426	16.000000	n/a	2	-1.067708e-01	-1.067708e-01
87.376770	1.033426	dec_choice	1.033426	16.000000	n/a	2	-1.067708e-01	-1.067708e-01
87.376770	1.033426	dec_nonsocial_accept	1.033426	16.000000	n/a	2	-1.010638e-01	-1.010638e-01
87.376770	1.033426	dec_accept	1.033426	16.000000	n/a	2	-1.067708e-01	-1.067708e-01
87.376770	1.033426	dec_nonsocial_accept_low	1.033426	16.000000	n/a	2	-9.510870e-02	-9.510870e-02
95.025856	0.684199	dec_social_choice	0.684199	16.000000	n/a	4	1.822917e-02	1.822917e-02
95.025856	0.684199	dec_choice	0.684199	16.000000	n/a	4	1.822917e-02	1.822917e-02
95.025856	0.684199	dec_social_accept	0.684199	16.000000	n/a	4	2.393617e-02	2.393617e-02
95.025856	0.684199	dec_accept	0.684199	16.000000	n/a	4	2.989130e-02	2.989130e-02
95.025856	0.684199	dec_social_accept_high	0.684199	16.000000	n/a	4	1.822917e-02	1.822917e-02
104.275870	0.850803	dec_social_choice	0.850803	16.000000	n/a	4	1.822917e-02	1.822917e-02
104.275870	0.850803	dec_choice	0.850803	16.000000	n/a	4	1.822917e-02	1.822917e-02
104.275870	0.850803	dec_social_accept	0.850803	16.000000	n/a	4	2.393617e-02	2.393617e-02
104.275870	0.850803	dec_accept	0.850803	16.000000	n/a	4	2.989130e-02	2.989130e-02
104.275870	0.850803	dec_social_high	0.850803	16.000000	n/a	4	1.822917e-02	1.822917e-02
104.275870	0.850803	dec_social_accept_high	0.850803	16.000000	n/a	4	1.822917e-02	1.822917e-02
111.110760	0.749268	dec_nonsocial_choice	0.749268	32.000000	n/a	16	2.682292e-01	2.682292e-01
111.110760	0.749268	dec_choice	0.749268	32.000000	n/a	16	2.682292e-01	2.682292e-01
111.110760	0.749268	dec_nonsocial_accept	0.749268	32.000000	n/a	16	2.739362e-01	2.739362e-01
111.110760	0.749268	dec_accept	0.749268	32.000000	n/a	16	2.682292e-01	2.682292e-01
111.110760	0.749268	dec_nonsocial_high	0.749268	32.000000	n/a	16	2.682292e-01	2.682292e-01
111.110760	0.749268	dec_nonsocial_accept_high	0.749268	32.000000	n/a	16	2.682292e-01	2.682292e-01
118.760640	0.649669	dec_nonsocial_choice	0.649669	32.000000	n/a	16	2.682292e-01	2.682292e-01
118.760640	0.649669	dec_choice	0.649669	32.000000	n/a	16	2.682292e-01	2.682292e-01
118.760640	0.649669	dec_nonsocial_accept	0.649669	32.000000	n/a	16	2.739362e-01	2.739362e-01
118.760640	0.649669	dec_accept	0.649669	32.000000	n/a	16	2.682292e-01	2.682292e-01
118.760640	0.649669	dec_nonsocial_accept_high	0.649669	32.000000	n/a	16	2.798913e-01	2.798913e-01
128.027630	0.699105	dec_nonsocial_choice	0.699105	32.000000	n/a	2	-1.692708e-01	-1.692708e-01
128.027630	0.699105	dec_choice	0.699105	32.000000	n/a	2	-1.692708e-01	-1.692708e-01
128.027630	0.699105	dec_nonsocial_accept	0.699105	32.000000	n/a	2	-1.635638e-01	-1.635638e-01
128.027630	0.699105	dec_accept	0.699105	32.000000	n/a	2	-1.692708e-01	-1.692708e-01
128.027630	0.699105	dec_nonsocial_accept_low	0.699105	32.000000	n/a	2	-1.576087e-01	-1.576087e-01
134.860470	0.849430	dec_nonsocial_choice	0.849430	16.000000	n/a	1	-1.692708e-01	-1.692708e-01
134.860470	0.849430	dec_choice	0.849430	16.000000	n/a	1	-1.692708e-01	-1.692708e-01
134.860470	0.849430	dec_nonsocial_accept	0.849430	16.000000	n/a	1	-1.635638e-01	-1.635638e-01
134.860470	0.849430	dec_accept	0.849430	16.000000	n/a	1	-1.692708e-01	-1.692708e-01
134.860470	0.849430	dec_nonsocial_accept_low	0.849430	16.000000	n/a	1	-1.576087e-01	-1.576087e-01
141.694300	0.764971	dec_social_choice	0.764971	32.000000	n/a	2	-1.692708e-01	-1.692708e-01
141.694300	0.764971	dec_choice	0.764971	32.000000	n/a	2	-1.692708e-01	-1.692708e-01
141.694300	0.764971	dec_social_accept	0.764971	32.000000	n/a	2	-1.635638e-01	-1.635638e-01
141.694300	0.764971	dec_accept	0.764971	32.000000	n/a	2	-1.576087e-01	-1.576087e-01
141.694300	0.764971	dec_social_accept_low	0.764971	32.000000	n/a	2	-1.692708e-01	-1.692708e-01
149.343120	0.733013	dec_social_choice	0.733013	32.000000	n/a	16	2.682292e-01	2.682292e-01
149.343120	0.733013	dec_choice	0.733013	32.000000	n/a	16	2.682292e-01	2.682292e-01
149.343120	0.733013	dec_social_accept	0.733013	32.000000	n/a	16	2.739362e-01	2.739362e-01
149.343120	0.733013	dec_accept	0.733013	32.000000	n/a	16	2.798913e-01	2.798913e-01
149.343120	0.733013	dec_social_accept_high	0.733013	32.000000	n/a	16	2.682292e-01	2.682292e-01
156.176640	0.533340	dec_social_choice	0.533340	16.000000	n/a	4	1.822917e-02	1.822917e-02
156.176640	0.533340	dec_choice	0.533340	16.000000	n/a	4	1.822917e-02	1.822917e-02
156.176640	0.533340	dec_social_accept	0.533340	16.000000	n/a	4	2.393617e-02	2.393617e-02
156.176640	0.533340	dec_accept	0.533340	16.000000	n/a	4	2.989130e-02	2.989130e-02
156.176640	0.533340	dec_social_accept_high	0.533340	16.000000	n/a	4	1.822917e-02	1.822917e-02
167.044360	0.732227	dec_nonsocial_choice	0.732227	16.000000	n/a	1	-1.692708e-01	-1.692708e-01
167.044360	0.732227	dec_choice	0.732227	16.000000	n/a	1	-1.692708e-01	-1.692708e-01
167.044360	0.732227	dec_nonsocial_accept	0.732227	16.000000	n/a	1	-1.635638e-01	-1.635638e-01
167.044360	0.732227	dec_accept	0.732227	16.000000	n/a	1	-1.692708e-01	-1.692708e-01
167.044360	0.732227	dec_nonsocial_accept_low	0.732227	16.000000	n/a	1	-1.576087e-01	-1.576087e-01
177.909710	0.633409	dec_nonsocial_choice	0.633409	32.000000	n/a	8	1.822917e-02	1.822917e-02
177.909710	0.633409	dec_choice	0.633409	32.000000	n/a	8	1.822917e-02	1.822917e-02
177.909710	0.633409	dec_nonsocial_accept	0.633409	32.000000	n/a	8	2.393617e-02	2.393617e-02
177.909710	0.633409	dec_accept	0.633409	32.000000	n/a	8	1.822917e-02	1.822917e-02
177.909710	0.633409	dec_nonsocial_high	0.633409	32.000000	n/a	8	1.822917e-02	1.822917e-02
177.909710	0.633409	dec_nonsocial_accept_high	0.633409	32.000000	n/a	8	1.822917e-02	1.822917e-02
185.559700	0.750243	dec_social_choice	0.750243	16.000000	n/a	2	-1.067708e-01	-1.067708e-01
185.559700	0.750243	dec_choice	0.750243	16.000000	n/a	2	-1.067708e-01	-1.067708e-01
185.559700	0.750243	dec_social_accept	0.750243	16.000000	n/a	2	-1.010638e-01	-1.010638e-01
185.559700	0.750243	dec_accept	0.750243	16.000000	n/a	2	-9.510870e-02	-9.510870e-02
185.559700	0.750243	dec_social_low	0.750243	16.000000	n/a	2	-1.067708e-01	-1.067708e-01
185.559700	0.750243	dec_social_accept_low	0.750243	16.000000	n/a	2	-1.067708e-01	-1.067708e-01
192.392820	0.733866	dec_nonsocial_choice	0.733866	16.000000	n/a	4	1.822917e-02	1.822917e-02
192.392820	0.733866	dec_choice	0.733866	16.000000	n/a	4	1.822917e-02	1.822917e-02
192.392820	0.733866	dec_nonsocial_accept	0.733866	16.000000	n/a	4	2.393617e-02	2.393617e-02
192.392820	0.733866	dec_accept	0.733866	16.000000	n/a	4	1.822917e-02	1.822917e-02
192.392820	0.733866	dec_nonsocial_high	0.733866	16.000000	n/a	4	1.822917e-02	1.822917e-02
192.392820	0.733866	dec_nonsocial_accept_high	0.733866	16.000000	n/a	4	1.822917e-02	1.822917e-02
199.226600	0.583252	dec_social_choice	0.583252	16.000000	n/a	4	1.822917e-02	1.822917e-02
199.226600	0.583252	dec_choice	0.583252	16.000000	n/a	4	1.822917e-02	1.822917e-02
199.226600	0.583252	dec_social_accept	0.583252	16.000000	n/a	4	2.393617e-02	2.393617e-02
199.226600	0.583252	dec_accept	0.583252	16.000000	n/a	4	2.989130e-02	2.989130e-02
199.226600	0.583252	dec_social_accept_high	0.583252	16.000000	n/a	4	1.822917e-02	1.822917e-02
206.060640	0.715297	dec_social_choice	0.715297	32.000000	n/a	16	2.682292e-01	2.682292e-01
206.060640	0.715297	dec_choice	0.715297	32.000000	n/a	16	2.682292e-01	2.682292e-01
206.060640	0.715297	dec_social_accept	0.715297	32.000000	n/a	16	2.739362e-01	2.739362e-01
206.060640	0.715297	dec_accept	0.715297	32.000000	n/a	16	2.798913e-01	2.798913e-01
206.060640	0.715297	dec_social_accept_high	0.715297	32.000000	n/a	16	2.682292e-01	2.682292e-01
212.894180	0.781507	dec_nonsocial_choice	0.781507	32.000000	n/a	16	2.682292e-01	2.682292e-01
212.894180	0.781507	dec_choice	0.781507	32.000000	n/a	16	2.682292e-01	2.682292e-01
212.894180	0.781507	dec_nonsocial_accept	0.781507	32.000000	n/a	16	2.739362e-01	2.739362e-01
212.894180	0.781507	dec_accept	0.781507	32.000000	n/a	16	2.682292e-01	2.682292e-01
212.894180	0.781507	dec_nonsocial_high	0.781507	32.000000	n/a	16	2.682292e-01	2.682292e-01
212.894180	0.781507	dec_nonsocial_accept_high	0.781507	32.000000	n/a	16	2.682292e-01	2.682292e-01
219.726210	0.750116	dec_nonsocial_choice	0.750116	16.000000	n/a	2	-1.067708e-01	-1.067708e-01
219.726210	0.750116	dec_choice	0.750116	16.000000	n/a	2	-1.067708e-01	-1.067708e-01
219.726210	0.750116	dec_nonsocial_accept	0.750116	16.000000	n/a	2	-1.010638e-01	-1.010638e-01
219.726210	0.750116	dec_accept	0.750116	16.000000	n/a	2	-1.067708e-01	-1.067708e-01
219.726210	0.750116	dec_nonsocial_accept_low	0.750116	16.000000	n/a	2	-9.510870e-02	-9.510870e-02
227.376000	0.783698	dec_social_choice	0.783698	32.000000	n/a	3	-1.380208e-01	-1.380208e-01
227.376000	0.783698	dec_choice	0.783698	32.000000	n/a	3	-1.380208e-01	-1.380208e-01
227.376000	0.783698	dec_social_accept	0.783698	32.000000	n/a	3	-1.323138e-01	-1.323138e-01
227.376000	0.783698	dec_accept	0.783698	32.000000	n/a	3	-1.263587e-01	-1.263587e-01
227.376000	0.783698	dec_social_accept_low	0.783698	32.000000	n/a	3	-1.380208e-01	-1.380208e-01
238.242900	0.700109	dec_nonsocial_choice	0.700109	32.000000	n/a	2	-1.692708e-01	-1.692708e-01
238.242900	0.700109	dec_choice	0.700109	32.000000	n/a	2	-1.692708e-01	-1.692708e-01
238.242900	0.700109	dec_nonsocial_accept	0.700109	32.000000	n/a	2	-1.635638e-01	-1.635638e-01
238.242900	0.700109	dec_accept	0.700109	32.000000	n/a	2	-1.692708e-01	-1.692708e-01
238.242900	0.700109	dec_nonsocial_low	0.700109	32.000000	n/a	2	-1.692708e-01	-1.692708e-01
238.242900	0.700109	dec_nonsocial_accept_low	0.700109	32.000000	n/a	2	-1.692708e-01	-1.692708e-01
245.076420	0.750068	dec_nonsocial_choice	0.750068	16.000000	n/a	2	-1.067708e-01	-1.067708e-01
245.076420	0.750068	dec_choice	0.750068	16.000000	n/a	2	-1.067708e-01	-1.067708e-01
245.076420	0.750068	dec_nonsocial_accept	0.750068	16.000000	n/a	2	-1.010638e-01	-1.010638e-01
245.076420	0.750068	dec_accept	0.750068	16.000000	n/a	2	-1.067708e-01	-1.067708e-01
245.076420	0.750068	dec_nonsocial_low	0.750068	16.000000	n/a	2	-1.067708e-01	-1.067708e-01
245.076420	0.750068	dec_nonsocial_accept_low	0.750068	16.000000	n/a	2	-1.067708e-01	-1.067708e-01
251.909590	0.633248	dec_social_choice	0.633248	32.000000	n/a	2	-1.692708e-01	-1.692708e-01
251.909590	0.633248	dec_choice	0.633248	32.000000	n/a	2	-1.692708e-01	-1.692708e-01
251.909590	0.633248	dec_social_accept	0.633248	32.000000	n/a	2	-1.635638e-01	-1.635638e-01
251.909590	0.633248	dec_accept	0.633248	32.000000	n/a	2	-1.576087e-01	-1.576087e-01
251.909590	0.633248	dec_social_accept_low	0.633248	32.000000	n/a	2	-1.692708e-01	-1.692708e-01
258.743070	0.549865	dec_nonsocial_choice	0.549865	32.000000	n/a	2	-1.692708e-01	-1.692708e-01
258.743070	0.549865	dec_choice	0.549865	32.000000	n/a	2	-1.692708e-01	-1.692708e-01
258.743070	0.549865	dec_nonsocial_accept	0.549865	32.000000	n/a	2	-1.635638e-01	-1.635638e-01
258.743070	0.549865	dec_accept	0.549865	32.000000	n/a	2	-1.692708e-01	-1.692708e-01
258.743070	0.549865	dec_nonsocial_accept_low	0.549865	32.000000	n/a	2	-1.576087e-01	-1.576087e-01
265.576600	0.632971	dec_nonsocial_choice	0.632971	32.000000	n/a	3	-1.380208e-01	-1.380208e-01
265.576600	0.632971	dec_choice	0.632971	32.000000	n/a	3	-1.380208e-01	-1.380208e-01
265.576600	0.632971	dec_nonsocial_accept	0.632971	32.000000	n/a	3	-1.323138e-01	-1.323138e-01
265.576600	0.632971	dec_accept	0.632971	32.000000	n/a	3	-1.380208e-01	-1.380208e-01
265.576600	0.632971	dec_nonsocial_low	0.632971	32.000000	n/a	3	-1.380208e-01	-1.380208e-01
265.576600	0.632971	dec_nonsocial_accept_low	0.632971	32.000000	n/a	3	-1.380208e-01	-1.380208e-01
278.059570	0.883271	dec_nonsocial_choice	0.883271	16.000000	n/a	4	1.822917e-02	1.822917e-02
278.059570	0.883271	dec_choice	0.883271	16.000000	n/a	4	1.822917e-02	1.822917e-02
278.059570	0.883271	dec_nonsocial_accept	0.883271	16.000000	n/a	4	2.393617e-02	2.393617e-02
278.059570	0.883271	dec_accept	0.883271	16.000000	n/a	4	1.822917e-02	1.822917e-02
278.059570	0.883271	dec_nonsocial_accept_high	0.883271	16.000000	n/a	4	2.989130e-02	2.989130e-02
284.893520	0.749188	dec_social_choice	0.749188	32.000000	n/a	0	0	-2.317708e-01
284.893520	0.749188	dec_choice	0.749188	32.000000	n/a	0	0	-2.317708e-01
284.893520	0.749188	dec_social_reject	0.749188	32.000000	n/a	0	0	2.500000e-01
284.893520	0.749188	dec_reject	0.749188	32.000000	n/a	0	0	0
284.893520	0.749188	dec_social_reject_low	0.749188	32.000000	n/a	16	2.682292e-01	-2.317708e-01
292.542570	0.650162	dec_social_choice	0.650162	32.000000	n/a	16	2.682292e-01	2.682292e-01
292.542570	0.650162	dec_choice	0.650162	32.000000	n/a	16	2.682292e-01	2.682292e-01
292.542570	0.650162	dec_social_accept	0.650162	32.000000	n/a	16	2.739362e-01	2.739362e-01
292.542570	0.650162	dec_accept	0.650162	32.000000	n/a	16	2.798913e-01	2.798913e-01
292.542570	0.650162	dec_social_accept_high	0.650162	32.000000	n/a	16	2.682292e-01	2.682292e-01
299.375500	0.633846	dec_social_choice	0.633846	32.000000	n/a	16	2.682292e-01	2.682292e-01
299.375500	0.633846	dec_choice	0.633846	32.000000	n/a	16	2.682292e-01	2.682292e-01
299.375500	0.633846	dec_social_accept	0.633846	32.000000	n/a	16	2.739362e-01	2.739362e-01
299.375500	0.633846	dec_accept	0.633846	32.000000	n/a	16	2.798913e-01	2.798913e-01
299.375500	0.633846	dec_social_accept_high	0.633846	32.000000	n/a	16	2.682292e-01	2.682292e-01
307.025450	0.833915	dec_nonsocial_choice	0.833915	16.000000	n/a	4	1.822917e-02	1.822917e-02
307.025450	0.833915	dec_choice	0.833915	16.000000	n/a	4	1.822917e-02	1.822917e-02
307.025450	0.833915	dec_nonsocial_accept	0.833915	16.000000	n/a	4	2.393617e-02	2.393617e-02
307.025450	0.833915	dec_accept	0.833915	16.000000	n/a	4	1.822917e-02	1.822917e-02
307.025450	0.833915	dec_nonsocial_accept_high	0.833915	16.000000	n/a	4	2.989130e-02	2.989130e-02
316.292500	0.866333	dec_social_choice	0.866333	32.000000	n/a	2	-1.692708e-01	-1.692708e-01
316.292500	0.866333	dec_choice	0.866333	32.000000	n/a	2	-1.692708e-01	-1.692708e-01
316.292500	0.866333	dec_social_accept	0.866333	32.000000	n/a	2	-1.635638e-01	-1.635638e-01
316.292500	0.866333	dec_accept	0.866333	32.000000	n/a	2	-1.576087e-01	-1.576087e-01
316.292500	0.866333	dec_social_accept_low	0.866333	32.000000	n/a	2	-1.692708e-01	-1.692708e-01
325.542660	1.033549	dec_social_choice	1.033549	16.000000	n/a	1	-1.692708e-01	-1.692708e-01
325.542660	1.033549	dec_choice	1.033549	16.000000	n/a	1	-1.692708e-01	-1.692708e-01
325.542660	1.033549	dec_social_accept	1.033549	16.000000	n/a	1	-1.635638e-01	-1.635638e-01
325.542660	1.033549	dec_accept	1.033549	16.000000	n/a	1	-1.576087e-01	-1.576087e-01
325.542660	1.033549	dec_social_low	1.033549	16.000000	n/a	1	-1.692708e-01	-1.692708e-01
325.542660	1.033549	dec_social_accept_low	1.033549	16.000000	n/a	1	-1.692708e-01	-1.692708e-01
334.810330	1.015130	dec_nonsocial_choice	1.015130	32.000000	n/a	16	2.682292e-01	2.682292e-01
334.810330	1.015130	dec_choice	1.015130	32.000000	n/a	16	2.682292e-01	2.682292e-01
334.810330	1.015130	dec_nonsocial_accept	1.015130	32.000000	n/a	16	2.739362e-01	2.739362e-01
334.810330	1.015130	dec_accept	1.015130	32.000000	n/a	16	2.682292e-01	2.682292e-01
334.810330	1.015130	dec_nonsocial_high	1.015130	32.000000	n/a	16	2.682292e-01	2.682292e-01
334.810330	1.015130	dec_nonsocial_accept_high	1.015130	32.000000	n/a	16	2.682292e-01	2.682292e-01
341.642500	1.250027	dec_social_choice	1.250027	16.000000	n/a	2	-1.067708e-01	-1.067708e-01
341.642500	1.250027	dec_choice	1.250027	16.000000	n/a	2	-1.067708e-01	-1.067708e-01
341.642500	1.250027	dec_social_accept	1.250027	16.000000	n/a	2	-1.010638e-01	-1.010638e-01
341.642500	1.250027	dec_accept	1.250027	16.000000	n/a	2	-9.510870e-02	-9.510870e-02
341.642500	1.250027	dec_social_low	1.250027	16.000000	n/a	2	-1.067708e-01	-1.067708e-01
341.642500	1.250027	dec_social_accept_low	1.250027	16.000000	n/a	2	-1.067708e-01	-1.067708e-01
349.292400	0.716827	dec_nonsocial_choice	0.716827	16.000000	n/a	2	-1.067708e-01	-1.067708e-01
349.292400	0.716827	dec_choice	0.716827	16.000000	n/a	2	-1.067708e-01	-1.067708e-01
349.292400	0.716827	dec_nonsocial_accept	0.716827	16.000000	n/a	2	-1.010638e-01	-1.010638e-01
349.292400	0.716827	dec_accept	0.716827	16.000000	n/a	2	-1.067708e-01	-1.067708e-01
349.292400	0.716827	dec_nonsocial_accept_low	0.716827	16.000000	n/a	2	-9.510870e-02	-9.510870e-02
356.125900	0.966193	dec_nonsocial_choice	0.966193	32.000000	n/a	8	1.822917e-02	1.822917e-02
356.125900	0.966193	dec_choice	0.966193	32.000000	n/a	8	1.822917e-02	1.822917e-02
356.125900	0.966193	dec_nonsocial_accept	0.966193	32.000000	n/a	8	2.393617e-02	2.393617e-02
356.125900	0.966193	dec_accept	0.966193	32.000000	n/a	8	1.822917e-02	1.822917e-02
356.125900	0.966193	dec_nonsocial_accept_high	0.966193	32.000000	n/a	8	2.989130e-02	2.989130e-02
363.776860	1.064988	dec_nonsocial_choice	1.064988	16.000000	n/a	8	2.682292e-01	2.682292e-01
363.776860	1.064988	dec_choice	1.064988	16.000000	n/a	8	2.682292e-01	2.682292e-01
363.776860	1.064988	dec_nonsocial_accept	1.064988	16.000000	n/a	8	2.739362e-01	2.739362e-01
363.776860	1.064988	dec_accept	1.064988	16.000000	n/a	8	2.682292e-01	2.682292e-01
363.776860	1.064988	dec_nonsocial_accept_high	1.064988	16.000000	n/a	8	2.798913e-01	2.798913e-01
370.609280	0.899982	dec_nonsocial_choice	0.899982	16.000000	n/a	8	2.682292e-01	2.682292e-01
370.609280	0.899982	dec_choice	0.899982	16.000000	n/a	8	2.682292e-01	2.682292e-01
370.609280	0.899982	dec_nonsocial_accept	0.899982	16.000000	n/a	8	2.739362e-01	2.739362e-01
370.609280	0.899982	dec_accept	0.899982	16.000000	n/a	8	2.682292e-01	2.682292e-01
370.609280	0.899982	dec_nonsocial_accept_high	0.899982	16.000000	n/a	8	2.798913e-01	2.798913e-01
