onset	duration	trial_type	response_time	Endowment	Endowment_pmod	Decision	Decision_pmod	Offer_pmod
4.513025	2	cue_nonsocial	n/a	16	-7	n/a	n/a	n/a
4.513025	2	cue_nonsocial_low	n/a	16	-7	n/a	n/a	n/a
13.779854	2	cue_nonsocial	n/a	32	9	n/a	n/a	n/a
13.779854	2	cue_nonsocial_high	n/a	32	9	n/a	n/a	n/a
20.684479	2	cue_social	n/a	32	9	n/a	n/a	n/a
20.684479	2	cue_social_high	n/a	32	9	n/a	n/a	n/a
31.563526	2	cue_social	n/a	32	9	n/a	n/a	n/a
31.563526	2	cue_social_high	n/a	32	9	n/a	n/a	n/a
38.312830	2	cue_nonsocial	n/a	32	9	n/a	n/a	n/a
38.312830	2	cue_nonsocial_high	n/a	32	9	n/a	n/a	n/a
47.579470	2	cue_nonsocial	n/a	16	-7	n/a	n/a	n/a
47.579470	2	cue_nonsocial_low	n/a	16	-7	n/a	n/a	n/a
54.479860	2	cue_social	n/a	32	9	n/a	n/a	n/a
54.479860	2	cue_social_high	n/a	32	9	n/a	n/a	n/a
61.330410	2	cue_social	n/a	16	-7	n/a	n/a	n/a
61.330410	2	cue_social_low	n/a	16	-7	n/a	n/a	n/a
68.165190	2	cue_social	n/a	16	-7	n/a	n/a	n/a
68.165190	2	cue_social_low	n/a	16	-7	n/a	n/a	n/a
75.729065	2	cue_nonsocial	n/a	16	-7	n/a	n/a	n/a
75.729065	2	cue_nonsocial_low	n/a	16	-7	n/a	n/a	n/a
82.673980	2	cue_social	n/a	16	-7	n/a	n/a	n/a
82.673980	2	cue_social_low	n/a	16	-7	n/a	n/a	n/a
89.469700	2	cue_social	n/a	16	-7	n/a	n/a	n/a
89.469700	2	cue_social_low	n/a	16	-7	n/a	n/a	n/a
98.736570	2	cue_social	n/a	32	9	n/a	n/a	n/a
98.736570	2	cue_social_high	n/a	32	9	n/a	n/a	n/a
106.295890	2	cue_nonsocial	n/a	32	9	n/a	n/a	n/a
106.295890	2	cue_nonsocial_high	n/a	32	9	n/a	n/a	n/a
115.562610	2	cue_nonsocial	n/a	16	-7	n/a	n/a	n/a
115.562610	2	cue_nonsocial_low	n/a	16	-7	n/a	n/a	n/a
122.395880	2	cue_nonsocial	n/a	32	9	n/a	n/a	n/a
122.395880	2	cue_nonsocial_high	n/a	32	9	n/a	n/a	n/a
129.314470	2	cue_social	n/a	32	9	n/a	n/a	n/a
129.314470	2	cue_social_high	n/a	32	9	n/a	n/a	n/a
138.479660	2	cue_nonsocial	n/a	16	-7	n/a	n/a	n/a
138.479660	2	cue_nonsocial_low	n/a	16	-7	n/a	n/a	n/a
146.129400	2	cue_nonsocial	n/a	16	-7	n/a	n/a	n/a
146.129400	2	cue_nonsocial_low	n/a	16	-7	n/a	n/a	n/a
152.962880	2	cue_nonsocial	n/a	16	-7	n/a	n/a	n/a
152.962880	2	cue_nonsocial_low	n/a	16	-7	n/a	n/a	n/a
162.228800	2	cue_nonsocial	n/a	16	-7	n/a	n/a	n/a
162.228800	2	cue_nonsocial_low	n/a	16	-7	n/a	n/a	n/a
169.968370	2	cue_social	n/a	16	-7	n/a	n/a	n/a
169.968370	2	cue_social_low	n/a	16	-7	n/a	n/a	n/a
177.569060	2	cue_social	n/a	32	9	n/a	n/a	n/a
177.569060	2	cue_social_high	n/a	32	9	n/a	n/a	n/a
190.007280	2	cue_social	n/a	32	9	n/a	n/a	n/a
190.007280	2	cue_social_high	n/a	32	9	n/a	n/a	n/a
196.868130	2	cue_social	n/a	32	9	n/a	n/a	n/a
196.868130	2	cue_social_high	n/a	32	9	n/a	n/a	n/a
203.662490	2	cue_nonsocial	n/a	32	9	n/a	n/a	n/a
203.662490	2	cue_nonsocial_high	n/a	32	9	n/a	n/a	n/a
211.389530	2	cue_social	n/a	16	-7	n/a	n/a	n/a
211.389530	2	cue_social_low	n/a	16	-7	n/a	n/a	n/a
218.129290	2	cue_nonsocial	n/a	32	9	n/a	n/a	n/a
218.129290	2	cue_nonsocial_high	n/a	32	9	n/a	n/a	n/a
224.962810	2	cue_nonsocial	n/a	32	9	n/a	n/a	n/a
224.962810	2	cue_nonsocial_high	n/a	32	9	n/a	n/a	n/a
231.918240	2	cue_social	n/a	16	-7	n/a	n/a	n/a
231.918240	2	cue_social_low	n/a	16	-7	n/a	n/a	n/a
239.446010	2	cue_nonsocial	n/a	32	9	n/a	n/a	n/a
239.446010	2	cue_nonsocial_high	n/a	32	9	n/a	n/a	n/a
247.181840	2	cue_social	n/a	32	9	n/a	n/a	n/a
247.181840	2	cue_social_high	n/a	32	9	n/a	n/a	n/a
254.000140	2	cue_social	n/a	16	-7	n/a	n/a	n/a
254.000140	2	cue_social_low	n/a	16	-7	n/a	n/a	n/a
264.877720	2	cue_social	n/a	16	-7	n/a	n/a	n/a
264.877720	2	cue_social_low	n/a	16	-7	n/a	n/a	n/a
272.538640	2	cue_social	n/a	32	9	n/a	n/a	n/a
272.538640	2	cue_social_high	n/a	32	9	n/a	n/a	n/a
283.402200	2	cue_social	n/a	16	-7	n/a	n/a	n/a
283.402200	2	cue_social_low	n/a	16	-7	n/a	n/a	n/a
290.961980	2	cue_nonsocial	n/a	16	-7	n/a	n/a	n/a
290.961980	2	cue_nonsocial_low	n/a	16	-7	n/a	n/a	n/a
297.867400	2	cue_social	n/a	16	-7	n/a	n/a	n/a
297.867400	2	cue_social_low	n/a	16	-7	n/a	n/a	n/a
305.445980	2	cue_nonsocial	n/a	16	-7	n/a	n/a	n/a
305.445980	2	cue_nonsocial_low	n/a	16	-7	n/a	n/a	n/a
312.278750	2	cue_nonsocial	n/a	16	-7	n/a	n/a	n/a
312.278750	2	cue_nonsocial_low	n/a	16	-7	n/a	n/a	n/a
319.112760	2	cue_nonsocial	n/a	32	9	n/a	n/a	n/a
319.112760	2	cue_nonsocial_high	n/a	32	9	n/a	n/a	n/a
325.945340	2	cue_nonsocial	n/a	32	9	n/a	n/a	n/a
325.945340	2	cue_nonsocial_high	n/a	32	9	n/a	n/a	n/a
332.790500	2	cue_nonsocial	n/a	32	9	n/a	n/a	n/a
332.790500	2	cue_nonsocial_high	n/a	32	9	n/a	n/a	n/a
339.611900	2	cue_nonsocial	n/a	16	-7	n/a	n/a	n/a
339.611900	2	cue_nonsocial_low	n/a	16	-7	n/a	n/a	n/a
347.328920	2	cue_social	n/a	16	-7	n/a	n/a	n/a
347.328920	2	cue_social_low	n/a	16	-7	n/a	n/a	n/a
354.912320	2	cue_nonsocial	n/a	16	-7	n/a	n/a	n/a
354.912320	2	cue_nonsocial_low	n/a	16	-7	n/a	n/a	n/a
361.863250	2	cue_social	n/a	16	-7	n/a	n/a	n/a
361.863250	2	cue_social_low	n/a	16	-7	n/a	n/a	n/a
368.659700	2	cue_social	n/a	16	-7	n/a	n/a	n/a
368.659700	2	cue_social_low	n/a	16	-7	n/a	n/a	n/a
6.518910	0.584800	dec_nonsocial_choice	0.584800	16.000000	n/a	8	2.701823e-01	2.701823e-01
6.518910	0.584800	dec_choice	0.584800	16.000000	n/a	8	2.708333e-01	2.708333e-01
6.518910	0.584800	dec_nonsocial_accept	0.584800	16.000000	n/a	8	2.263258e-01	2.263258e-01
6.518910	0.584800	dec_accept	0.584800	16.000000	n/a	8	2.642045e-01	2.642045e-01
6.518910	0.584800	dec_nonsocial_accept_high	0.584800	16.000000	n/a	8	1.505682e-01	1.505682e-01
15.785088	1.050309	dec_nonsocial_choice	1.050309	32.000000	n/a	3	-1.360677e-01	-1.360677e-01
15.785088	1.050309	dec_choice	1.050309	32.000000	n/a	3	-1.354167e-01	-1.354167e-01
15.785088	1.050309	dec_nonsocial_accept	1.050309	32.000000	n/a	3	-1.799242e-01	-1.799242e-01
15.785088	1.050309	dec_accept	1.050309	32.000000	n/a	3	-1.420455e-01	-1.420455e-01
15.785088	1.050309	dec_nonsocial_low	1.050309	32.000000	n/a	3	-1.354167e-01	-1.354167e-01
15.785088	1.050309	dec_nonsocial_accept_low	1.050309	32.000000	n/a	3	-1.420455e-01	-1.420455e-01
22.618847	0.782767	dec_social_choice	0.782767	32.000000	n/a	0	0	-2.298177e-01
22.618847	0.782767	dec_choice	0.782767	32.000000	n/a	0	0	-2.304688e-01
22.618847	0.782767	dec_social_reject	0.782767	32.000000	n/a	0	0	-3.958333e-02
22.618847	0.782767	dec_reject	0.782767	32.000000	n/a	0	0	-3.605769e-02
22.618847	0.782767	dec_social_reject_low	0.782767	32.000000	n/a	3	-1.367188e-01	-2.304688e-01
33.484974	1.300783	dec_social_choice	1.300783	32.000000	n/a	0	0	-2.298177e-01
33.484974	1.300783	dec_choice	1.300783	32.000000	n/a	0	0	-2.304688e-01
33.484974	1.300783	dec_social_reject	1.300783	32.000000	n/a	0	0	-7.083333e-02
33.484974	1.300783	dec_reject	1.300783	32.000000	n/a	0	0	-6.730769e-02
33.484974	1.300783	dec_social_low	1.300783	32.000000	n/a	0	-2.304688e-01	-2.304688e-01
33.484974	1.300783	dec_social_reject_low	1.300783	32.000000	n/a	2	-1.679688e-01	-2.304688e-01
40.319874	0.615523	dec_nonsocial_choice	0.615523	32.000000	n/a	0	0	-2.298177e-01
40.319874	0.615523	dec_choice	0.615523	32.000000	n/a	0	0	-2.291667e-01
40.319874	0.615523	dec_nonsocial_reject	0.615523	32.000000	n/a	0	0	1.166667e-01
40.319874	0.615523	dec_reject	0.615523	32.000000	n/a	0	0	9.375000e-02
40.319874	0.615523	dec_nonsocial_reject_low	0.615523	32.000000	n/a	8	1.201923e-01	-1.298077e-01
49.585205	0.750086	dec_nonsocial_choice	0.750086	16.000000	n/a	8	2.701823e-01	2.701823e-01
49.585205	0.750086	dec_choice	0.750086	16.000000	n/a	8	2.708333e-01	2.708333e-01
49.585205	0.750086	dec_nonsocial_accept	0.750086	16.000000	n/a	8	2.263258e-01	2.263258e-01
49.585205	0.750086	dec_accept	0.750086	16.000000	n/a	8	2.642045e-01	2.642045e-01
49.585205	0.750086	dec_nonsocial_accept_high	0.750086	16.000000	n/a	8	1.505682e-01	1.505682e-01
56.418976	0.699960	dec_social_choice	0.699960	32.000000	n/a	0	0	-2.298177e-01
56.418976	0.699960	dec_choice	0.699960	32.000000	n/a	0	0	-2.304688e-01
56.418976	0.699960	dec_social_reject	0.699960	32.000000	n/a	0	0	-3.958333e-02
56.418976	0.699960	dec_reject	0.699960	32.000000	n/a	0	0	-3.605769e-02
56.418976	0.699960	dec_social_reject_low	0.699960	32.000000	n/a	3	-1.367188e-01	-2.304688e-01
63.251846	1.017137	dec_social_choice	1.017137	16.000000	n/a	4	2.018229e-02	2.018229e-02
63.251846	1.017137	dec_choice	1.017137	16.000000	n/a	4	1.953125e-02	1.953125e-02
63.251846	1.017137	dec_social_accept	1.017137	16.000000	n/a	4	-2.367424e-02	-2.367424e-02
63.251846	1.017137	dec_accept	1.017137	16.000000	n/a	4	-9.943182e-02	-9.943182e-02
63.251846	1.017137	dec_social_accept_high	1.017137	16.000000	n/a	4	1.953125e-02	1.953125e-02
70.084840	0.583262	dec_social_choice	0.583262	16.000000	n/a	4	2.018229e-02	2.018229e-02
70.084840	0.583262	dec_choice	0.583262	16.000000	n/a	4	1.953125e-02	1.953125e-02
70.084840	0.583262	dec_social_accept	0.583262	16.000000	n/a	4	-2.367424e-02	-2.367424e-02
70.084840	0.583262	dec_accept	0.583262	16.000000	n/a	4	-9.943182e-02	-9.943182e-02
70.084840	0.583262	dec_social_accept_high	0.583262	16.000000	n/a	4	1.953125e-02	1.953125e-02
77.735900	0.565519	dec_nonsocial_choice	0.565519	16.000000	n/a	1	-1.673177e-01	-1.673177e-01
77.735900	0.565519	dec_choice	0.565519	16.000000	n/a	1	-1.666667e-01	-1.666667e-01
77.735900	0.565519	dec_nonsocial_accept	0.565519	16.000000	n/a	1	-2.111742e-01	-2.111742e-01
77.735900	0.565519	dec_accept	0.565519	16.000000	n/a	1	-1.732955e-01	-1.732955e-01
77.735900	0.565519	dec_nonsocial_accept_low	0.565519	16.000000	n/a	1	-2.869318e-01	-2.869318e-01
84.569110	1.182950	dec_social_choice	1.182950	16.000000	n/a	0	0	-2.298177e-01
84.569110	1.182950	dec_choice	1.182950	16.000000	n/a	0	0	-2.304688e-01
84.569110	1.182950	dec_social_reject	1.182950	16.000000	n/a	0	0	1.166667e-01
84.569110	1.182950	dec_reject	1.182950	16.000000	n/a	0	0	1.201923e-01
84.569110	1.182950	dec_social_reject_low	1.182950	16.000000	n/a	4	1.953125e-02	-2.304688e-01
91.400910	1.067772	dec_social_choice	1.067772	16.000000	n/a	8	2.701823e-01	2.701823e-01
91.400910	1.067772	dec_choice	1.067772	16.000000	n/a	8	2.695312e-01	2.695312e-01
91.400910	1.067772	dec_social_accept	1.067772	16.000000	n/a	8	2.263258e-01	2.263258e-01
91.400910	1.067772	dec_accept	1.067772	16.000000	n/a	8	1.505682e-01	1.505682e-01
91.400910	1.067772	dec_social_accept_high	1.067772	16.000000	n/a	8	2.695312e-01	2.695312e-01
100.651970	0.500300	dec_social_choice	0.500300	32.000000	n/a	8	2.018229e-02	2.018229e-02
100.651970	0.500300	dec_choice	0.500300	32.000000	n/a	8	1.953125e-02	1.953125e-02
100.651970	0.500300	dec_social_accept	0.500300	32.000000	n/a	8	-2.367424e-02	-2.367424e-02
100.651970	0.500300	dec_accept	0.500300	32.000000	n/a	8	-9.943182e-02	-9.943182e-02
100.651970	0.500300	dec_social_accept_high	0.500300	32.000000	n/a	8	1.953125e-02	1.953125e-02
108.301820	0.649241	dec_nonsocial_choice	0.649241	32.000000	n/a	2	-1.673177e-01	-1.673177e-01
108.301820	0.649241	dec_choice	0.649241	32.000000	n/a	2	-1.666667e-01	-1.666667e-01
108.301820	0.649241	dec_nonsocial_accept	0.649241	32.000000	n/a	2	-2.111742e-01	-2.111742e-01
108.301820	0.649241	dec_accept	0.649241	32.000000	n/a	2	-1.732955e-01	-1.732955e-01
108.301820	0.649241	dec_nonsocial_accept_low	0.649241	32.000000	n/a	2	-2.869318e-01	-2.869318e-01
117.568720	0.816170	dec_nonsocial_choice	0.816170	16.000000	n/a	2	-1.048177e-01	-1.048177e-01
117.568720	0.816170	dec_choice	0.816170	16.000000	n/a	2	-1.041667e-01	-1.041667e-01
117.568720	0.816170	dec_nonsocial_accept	0.816170	16.000000	n/a	2	-1.486742e-01	-1.486742e-01
117.568720	0.816170	dec_accept	0.816170	16.000000	n/a	2	-1.107955e-01	-1.107955e-01
117.568720	0.816170	dec_nonsocial_low	0.816170	16.000000	n/a	2	-1.041667e-01	-1.041667e-01
117.568720	0.816170	dec_nonsocial_accept_low	0.816170	16.000000	n/a	2	-1.107955e-01	-1.107955e-01
124.401870	0.900316	dec_nonsocial_choice	0.900316	32.000000	n/a	3	-1.360677e-01	-1.360677e-01
124.401870	0.900316	dec_choice	0.900316	32.000000	n/a	3	-1.354167e-01	-1.354167e-01
124.401870	0.900316	dec_nonsocial_accept	0.900316	32.000000	n/a	3	-1.799242e-01	-1.799242e-01
124.401870	0.900316	dec_accept	0.900316	32.000000	n/a	3	-1.420455e-01	-1.420455e-01
124.401870	0.900316	dec_nonsocial_low	0.900316	32.000000	n/a	3	-1.354167e-01	-1.354167e-01
124.401870	0.900316	dec_nonsocial_accept_low	0.900316	32.000000	n/a	3	-1.420455e-01	-1.420455e-01
131.234330	0.883804	dec_social_choice	0.883804	32.000000	n/a	0	0	-2.298177e-01
131.234330	0.883804	dec_choice	0.883804	32.000000	n/a	0	0	-2.304688e-01
131.234330	0.883804	dec_social_reject	0.883804	32.000000	n/a	0	0	-7.083333e-02
131.234330	0.883804	dec_reject	0.883804	32.000000	n/a	0	0	-6.730769e-02
131.234330	0.883804	dec_social_reject_low	0.883804	32.000000	n/a	2	-1.679688e-01	-2.304688e-01
140.485820	0.799543	dec_nonsocial_choice	0.799543	16.000000	n/a	8	2.701823e-01	2.701823e-01
140.485820	0.799543	dec_choice	0.799543	16.000000	n/a	8	2.708333e-01	2.708333e-01
140.485820	0.799543	dec_nonsocial_accept	0.799543	16.000000	n/a	8	2.263258e-01	2.263258e-01
140.485820	0.799543	dec_accept	0.799543	16.000000	n/a	8	2.642045e-01	2.642045e-01
140.485820	0.799543	dec_nonsocial_accept_high	0.799543	16.000000	n/a	8	1.505682e-01	1.505682e-01
148.134780	1.050338	dec_nonsocial_choice	1.050338	16.000000	n/a	4	2.018229e-02	2.018229e-02
148.134780	1.050338	dec_choice	1.050338	16.000000	n/a	4	2.083333e-02	2.083333e-02
148.134780	1.050338	dec_nonsocial_accept	1.050338	16.000000	n/a	4	-2.367424e-02	-2.367424e-02
148.134780	1.050338	dec_accept	1.050338	16.000000	n/a	4	1.420455e-02	1.420455e-02
148.134780	1.050338	dec_nonsocial_accept_high	1.050338	16.000000	n/a	4	-9.943182e-02	-9.943182e-02
154.968280	0.683552	dec_nonsocial_choice	0.683552	16.000000	n/a	0	0	-2.298177e-01
154.968280	0.683552	dec_choice	0.683552	16.000000	n/a	0	0	-2.291667e-01
154.968280	0.683552	dec_nonsocial_reject	0.683552	16.000000	n/a	0	0	-7.083333e-02
154.968280	0.683552	dec_reject	0.683552	16.000000	n/a	0	0	-9.375000e-02
154.968280	0.683552	dec_nonsocial_reject_low	0.683552	16.000000	n/a	1	-6.730769e-02	-1.298077e-01
164.234800	0.750464	dec_nonsocial_choice	0.750464	16.000000	n/a	4	2.018229e-02	2.018229e-02
164.234800	0.750464	dec_choice	0.750464	16.000000	n/a	4	2.083333e-02	2.083333e-02
164.234800	0.750464	dec_nonsocial_accept	0.750464	16.000000	n/a	4	-2.367424e-02	-2.367424e-02
164.234800	0.750464	dec_accept	0.750464	16.000000	n/a	4	1.420455e-02	1.420455e-02
164.234800	0.750464	dec_nonsocial_accept_high	0.750464	16.000000	n/a	4	-9.943182e-02	-9.943182e-02
171.868440	0.866096	dec_social_choice	0.866096	16.000000	n/a	0	0	-2.298177e-01
171.868440	0.866096	dec_choice	0.866096	16.000000	n/a	0	0	-2.304688e-01
171.868440	0.866096	dec_social_reject	0.866096	16.000000	n/a	0	0	-7.083333e-02
171.868440	0.866096	dec_reject	0.866096	16.000000	n/a	0	0	-6.730769e-02
171.868440	0.866096	dec_social_reject_low	0.866096	16.000000	n/a	1	-1.679688e-01	-2.304688e-01
179.518020	1.150440	dec_social_choice	1.150440	32.000000	n/a	0	0	-2.298177e-01
179.518020	1.150440	dec_choice	1.150440	32.000000	n/a	0	0	-2.304688e-01
179.518020	1.150440	dec_social_reject	1.150440	32.000000	n/a	0	0	-7.083333e-02
179.518020	1.150440	dec_reject	1.150440	32.000000	n/a	0	0	-6.730769e-02
179.518020	1.150440	dec_social_low	1.150440	32.000000	n/a	0	-2.304688e-01	-2.304688e-01
179.518020	1.150440	dec_social_reject_low	1.150440	32.000000	n/a	2	-1.679688e-01	-2.304688e-01
192.001790	1.666165	dec_social_choice	1.666165	32.000000	n/a	8	2.018229e-02	2.018229e-02
192.001790	1.666165	dec_choice	1.666165	32.000000	n/a	8	1.953125e-02	1.953125e-02
192.001790	1.666165	dec_social_accept	1.666165	32.000000	n/a	8	-2.367424e-02	-2.367424e-02
192.001790	1.666165	dec_accept	1.666165	32.000000	n/a	8	-9.943182e-02	-9.943182e-02
192.001790	1.666165	dec_social_high	1.666165	32.000000	n/a	8	1.953125e-02	1.953125e-02
192.001790	1.666165	dec_social_accept_high	1.666165	32.000000	n/a	8	1.953125e-02	1.953125e-02
198.835220	0.849778	dec_social_choice	0.849778	32.000000	n/a	8	2.018229e-02	2.018229e-02
198.835220	0.849778	dec_choice	0.849778	32.000000	n/a	8	1.953125e-02	1.953125e-02
198.835220	0.849778	dec_social_accept	0.849778	32.000000	n/a	8	-2.367424e-02	-2.367424e-02
198.835220	0.849778	dec_accept	0.849778	32.000000	n/a	8	-9.943182e-02	-9.943182e-02
198.835220	0.849778	dec_social_accept_high	0.849778	32.000000	n/a	8	1.953125e-02	1.953125e-02
205.668900	1.149546	dec_nonsocial_choice	1.149546	32.000000	n/a	16	2.701823e-01	2.701823e-01
205.668900	1.149546	dec_choice	1.149546	32.000000	n/a	16	2.708333e-01	2.708333e-01
205.668900	1.149546	dec_nonsocial_accept	1.149546	32.000000	n/a	16	2.263258e-01	2.263258e-01
205.668900	1.149546	dec_accept	1.149546	32.000000	n/a	16	2.642045e-01	2.642045e-01
205.668900	1.149546	dec_nonsocial_accept_high	1.149546	32.000000	n/a	16	1.505682e-01	1.505682e-01
213.301960	0.916286	dec_social_choice	0.916286	16.000000	n/a	0	0	-2.298177e-01
213.301960	0.916286	dec_choice	0.916286	16.000000	n/a	0	0	-2.304688e-01
213.301960	0.916286	dec_social_reject	0.916286	16.000000	n/a	0	0	-7.083333e-02
213.301960	0.916286	dec_reject	0.916286	16.000000	n/a	0	0	-6.730769e-02
213.301960	0.916286	dec_social_reject_low	0.916286	16.000000	n/a	1	-1.679688e-01	-2.304688e-01
220.134520	0.766695	dec_nonsocial_choice	0.766695	32.000000	n/a	2	-1.673177e-01	-1.673177e-01
220.134520	0.766695	dec_choice	0.766695	32.000000	n/a	2	-1.666667e-01	-1.666667e-01
220.134520	0.766695	dec_nonsocial_accept	0.766695	32.000000	n/a	2	-2.111742e-01	-2.111742e-01
220.134520	0.766695	dec_accept	0.766695	32.000000	n/a	2	-1.732955e-01	-1.732955e-01
220.134520	0.766695	dec_nonsocial_low	0.766695	32.000000	n/a	2	-1.666667e-01	-1.666667e-01
220.134520	0.766695	dec_nonsocial_accept_low	0.766695	32.000000	n/a	2	-1.732955e-01	-1.732955e-01
226.968690	1.399662	dec_nonsocial_choice	1.399662	32.000000	n/a	8	2.018229e-02	2.018229e-02
226.968690	1.399662	dec_choice	1.399662	32.000000	n/a	8	2.083333e-02	2.083333e-02
226.968690	1.399662	dec_nonsocial_accept	1.399662	32.000000	n/a	8	-2.367424e-02	-2.367424e-02
226.968690	1.399662	dec_accept	1.399662	32.000000	n/a	8	1.420455e-02	1.420455e-02
226.968690	1.399662	dec_nonsocial_accept_high	1.399662	32.000000	n/a	8	-9.943182e-02	-9.943182e-02
233.801850	0.632647	dec_social_choice	0.632647	16.000000	n/a	8	2.701823e-01	2.701823e-01
233.801850	0.632647	dec_choice	0.632647	16.000000	n/a	8	2.695312e-01	2.695312e-01
233.801850	0.632647	dec_social_accept	0.632647	16.000000	n/a	8	2.263258e-01	2.263258e-01
233.801850	0.632647	dec_accept	0.632647	16.000000	n/a	8	1.505682e-01	1.505682e-01
233.801850	0.632647	dec_social_accept_high	0.632647	16.000000	n/a	8	2.695312e-01	2.695312e-01
241.450870	0.766923	dec_nonsocial_choice	0.766923	32.000000	n/a	2	-1.673177e-01	-1.673177e-01
241.450870	0.766923	dec_choice	0.766923	32.000000	n/a	2	-1.666667e-01	-1.666667e-01
241.450870	0.766923	dec_nonsocial_accept	0.766923	32.000000	n/a	2	-2.111742e-01	-2.111742e-01
241.450870	0.766923	dec_accept	0.766923	32.000000	n/a	2	-1.732955e-01	-1.732955e-01
241.450870	0.766923	dec_nonsocial_accept_low	0.766923	32.000000	n/a	2	-2.869318e-01	-2.869318e-01
249.100680	1.450910	dec_social_choice	1.450910	32.000000	n/a	3	-1.360677e-01	-1.360677e-01
249.100680	1.450910	dec_choice	1.450910	32.000000	n/a	3	-1.367188e-01	-1.367188e-01
249.100680	1.450910	dec_social_accept	1.450910	32.000000	n/a	3	-1.799242e-01	-1.799242e-01
249.100680	1.450910	dec_accept	1.450910	32.000000	n/a	3	-2.556818e-01	-2.556818e-01
249.100680	1.450910	dec_social_accept_low	1.450910	32.000000	n/a	3	-1.367188e-01	-1.367188e-01
255.933800	0.601344	dec_social_choice	0.601344	16.000000	n/a	8	2.701823e-01	2.701823e-01
255.933800	0.601344	dec_choice	0.601344	16.000000	n/a	8	2.695312e-01	2.695312e-01
255.933800	0.601344	dec_social_accept	0.601344	16.000000	n/a	8	2.263258e-01	2.263258e-01
255.933800	0.601344	dec_accept	0.601344	16.000000	n/a	8	1.505682e-01	1.505682e-01
255.933800	0.601344	dec_social_accept_high	0.601344	16.000000	n/a	8	2.695312e-01	2.695312e-01
266.800960	1.300844	dec_social_choice	1.300844	16.000000	n/a	0	0	-2.298177e-01
266.800960	1.300844	dec_choice	1.300844	16.000000	n/a	0	0	-2.304688e-01
266.800960	1.300844	dec_social_reject	1.300844	16.000000	n/a	0	0	-8.333333e-03
266.800960	1.300844	dec_reject	1.300844	16.000000	n/a	0	0	-4.807692e-03
266.800960	1.300844	dec_social_low	1.300844	16.000000	n/a	0	-2.304688e-01	-2.304688e-01
266.800960	1.300844	dec_social_reject_low	1.300844	16.000000	n/a	2	-1.054688e-01	-2.304688e-01
274.451900	0.600254	dec_social_choice	0.600254	32.000000	n/a	0	0	-2.298177e-01
274.451900	0.600254	dec_choice	0.600254	32.000000	n/a	0	0	-2.304688e-01
274.451900	0.600254	dec_social_reject	0.600254	32.000000	n/a	0	0	3.666667e-01
274.451900	0.600254	dec_reject	0.600254	32.000000	n/a	0	0	3.701923e-01
274.451900	0.600254	dec_social_reject_low	0.600254	32.000000	n/a	16	2.695312e-01	-2.304688e-01
285.318630	0.815875	dec_social_choice	0.815875	16.000000	n/a	0	0	-2.298177e-01
285.318630	0.815875	dec_choice	0.815875	16.000000	n/a	0	0	-2.304688e-01
285.318630	0.815875	dec_social_reject	0.815875	16.000000	n/a	0	0	-7.083333e-02
285.318630	0.815875	dec_reject	0.815875	16.000000	n/a	0	0	-6.730769e-02
285.318630	0.815875	dec_social_reject_low	0.815875	16.000000	n/a	1	-1.679688e-01	-2.304688e-01
292.968080	0.816479	dec_nonsocial_choice	0.816479	16.000000	n/a	8	2.701823e-01	2.701823e-01
292.968080	0.816479	dec_choice	0.816479	16.000000	n/a	8	2.708333e-01	2.708333e-01
292.968080	0.816479	dec_nonsocial_accept	0.816479	16.000000	n/a	8	2.263258e-01	2.263258e-01
292.968080	0.816479	dec_accept	0.816479	16.000000	n/a	8	2.642045e-01	2.642045e-01
292.968080	0.816479	dec_nonsocial_high	0.816479	16.000000	n/a	8	2.708333e-01	2.708333e-01
292.968080	0.816479	dec_nonsocial_accept_high	0.816479	16.000000	n/a	8	2.642045e-01	2.642045e-01
299.800600	0.683644	dec_social_choice	0.683644	16.000000	n/a	0	0	-2.298177e-01
299.800600	0.683644	dec_choice	0.683644	16.000000	n/a	0	0	-2.304688e-01
299.800600	0.683644	dec_social_reject	0.683644	16.000000	n/a	0	0	-8.333333e-03
299.800600	0.683644	dec_reject	0.683644	16.000000	n/a	0	0	-4.807692e-03
299.800600	0.683644	dec_social_reject_low	0.683644	16.000000	n/a	2	-1.054688e-01	-2.304688e-01
307.451840	0.899864	dec_nonsocial_choice	0.899864	16.000000	n/a	1	-1.673177e-01	-1.673177e-01
307.451840	0.899864	dec_choice	0.899864	16.000000	n/a	1	-1.666667e-01	-1.666667e-01
307.451840	0.899864	dec_nonsocial_accept	0.899864	16.000000	n/a	1	-2.111742e-01	-2.111742e-01
307.451840	0.899864	dec_accept	0.899864	16.000000	n/a	1	-1.732955e-01	-1.732955e-01
307.451840	0.899864	dec_nonsocial_low	0.899864	16.000000	n/a	1	-1.666667e-01	-1.666667e-01
307.451840	0.899864	dec_nonsocial_accept_low	0.899864	16.000000	n/a	1	-1.732955e-01	-1.732955e-01
314.284760	0.900143	dec_nonsocial_choice	0.900143	16.000000	n/a	4	2.018229e-02	2.018229e-02
314.284760	0.900143	dec_choice	0.900143	16.000000	n/a	4	2.083333e-02	2.083333e-02
314.284760	0.900143	dec_nonsocial_accept	0.900143	16.000000	n/a	4	-2.367424e-02	-2.367424e-02
314.284760	0.900143	dec_accept	0.900143	16.000000	n/a	4	1.420455e-02	1.420455e-02
314.284760	0.900143	dec_nonsocial_high	0.900143	16.000000	n/a	4	2.083333e-02	2.083333e-02
314.284760	0.900143	dec_nonsocial_accept_high	0.900143	16.000000	n/a	4	1.420455e-02	1.420455e-02
321.117740	0.900243	dec_nonsocial_choice	0.900243	32.000000	n/a	3	-1.360677e-01	-1.360677e-01
321.117740	0.900243	dec_choice	0.900243	32.000000	n/a	3	-1.354167e-01	-1.354167e-01
321.117740	0.900243	dec_nonsocial_accept	0.900243	32.000000	n/a	3	-1.799242e-01	-1.799242e-01
321.117740	0.900243	dec_accept	0.900243	32.000000	n/a	3	-1.420455e-01	-1.420455e-01
321.117740	0.900243	dec_nonsocial_low	0.900243	32.000000	n/a	3	-1.354167e-01	-1.354167e-01
321.117740	0.900243	dec_nonsocial_accept_low	0.900243	32.000000	n/a	3	-1.420455e-01	-1.420455e-01
327.951700	1.199654	dec_nonsocial_choice	1.199654	32.000000	n/a	8	2.018229e-02	2.018229e-02
327.951700	1.199654	dec_choice	1.199654	32.000000	n/a	8	2.083333e-02	2.083333e-02
327.951700	1.199654	dec_nonsocial_accept	1.199654	32.000000	n/a	8	-2.367424e-02	-2.367424e-02
327.951700	1.199654	dec_accept	1.199654	32.000000	n/a	8	1.420455e-02	1.420455e-02
327.951700	1.199654	dec_nonsocial_accept_high	1.199654	32.000000	n/a	8	-9.943182e-02	-9.943182e-02
334.784730	0.916081	dec_nonsocial_choice	0.916081	32.000000	n/a	3	-1.360677e-01	-1.360677e-01
334.784730	0.916081	dec_choice	0.916081	32.000000	n/a	3	-1.354167e-01	-1.354167e-01
334.784730	0.916081	dec_nonsocial_accept	0.916081	32.000000	n/a	3	-1.799242e-01	-1.799242e-01
334.784730	0.916081	dec_accept	0.916081	32.000000	n/a	3	-1.420455e-01	-1.420455e-01
334.784730	0.916081	dec_nonsocial_low	0.916081	32.000000	n/a	3	-1.354167e-01	-1.354167e-01
334.784730	0.916081	dec_nonsocial_accept_low	0.916081	32.000000	n/a	3	-1.420455e-01	-1.420455e-01
341.618960	0.965343	dec_nonsocial_choice	0.965343	16.000000	n/a	8	2.701823e-01	2.701823e-01
341.618960	0.965343	dec_choice	0.965343	16.000000	n/a	8	2.708333e-01	2.708333e-01
341.618960	0.965343	dec_nonsocial_accept	0.965343	16.000000	n/a	8	2.263258e-01	2.263258e-01
341.618960	0.965343	dec_accept	0.965343	16.000000	n/a	8	2.642045e-01	2.642045e-01
341.618960	0.965343	dec_nonsocial_high	0.965343	16.000000	n/a	8	2.708333e-01	2.708333e-01
341.618960	0.965343	dec_nonsocial_accept_high	0.965343	16.000000	n/a	8	2.642045e-01	2.642045e-01
349.268830	0.882784	dec_social_choice	0.882784	16.000000	n/a	8	2.701823e-01	2.701823e-01
349.268830	0.882784	dec_choice	0.882784	16.000000	n/a	8	2.695312e-01	2.695312e-01
349.268830	0.882784	dec_social_accept	0.882784	16.000000	n/a	8	2.263258e-01	2.263258e-01
349.268830	0.882784	dec_accept	0.882784	16.000000	n/a	8	1.505682e-01	1.505682e-01
349.268830	0.882784	dec_social_high	0.882784	16.000000	n/a	8	2.695312e-01	2.695312e-01
349.268830	0.882784	dec_social_accept_high	0.882784	16.000000	n/a	8	2.695312e-01	2.695312e-01
356.918120	0.716105	dec_nonsocial_choice	0.716105	16.000000	n/a	2	-1.048177e-01	-1.048177e-01
356.918120	0.716105	dec_choice	0.716105	16.000000	n/a	2	-1.041667e-01	-1.041667e-01
356.918120	0.716105	dec_nonsocial_accept	0.716105	16.000000	n/a	2	-1.486742e-01	-1.486742e-01
356.918120	0.716105	dec_accept	0.716105	16.000000	n/a	2	-1.107955e-01	-1.107955e-01
356.918120	0.716105	dec_nonsocial_low	0.716105	16.000000	n/a	2	-1.041667e-01	-1.041667e-01
356.918120	0.716105	dec_nonsocial_accept_low	0.716105	16.000000	n/a	2	-1.107955e-01	-1.107955e-01
363.751000	1.400245	dec_social_choice	1.400245	16.000000	n/a	0	0	-2.298177e-01
363.751000	1.400245	dec_choice	1.400245	16.000000	n/a	0	0	-2.304688e-01
363.751000	1.400245	dec_social_reject	1.400245	16.000000	n/a	0	0	-8.333333e-03
363.751000	1.400245	dec_reject	1.400245	16.000000	n/a	0	0	-4.807692e-03
363.751000	1.400245	dec_social_low	1.400245	16.000000	n/a	0	-2.304688e-01	-2.304688e-01
363.751000	1.400245	dec_social_reject_low	1.400245	16.000000	n/a	2	-1.054688e-01	-2.304688e-01
370.584900	1.016382	dec_social_choice	1.016382	16.000000	n/a	8	2.701823e-01	2.701823e-01
370.584900	1.016382	dec_choice	1.016382	16.000000	n/a	8	2.695312e-01	2.695312e-01
370.584900	1.016382	dec_social_accept	1.016382	16.000000	n/a	8	2.263258e-01	2.263258e-01
370.584900	1.016382	dec_accept	1.016382	16.000000	n/a	8	1.505682e-01	1.505682e-01
370.584900	1.016382	dec_social_high	1.016382	16.000000	n/a	8	2.695312e-01	2.695312e-01
370.584900	1.016382	dec_social_accept_high	1.016382	16.000000	n/a	8	2.695312e-01	2.695312e-01
