onset	duration	trial_type	response_time	Endowment	Endowment_pmod	Decision	Decision_pmod	Offer_pmod
4.513649	2	cue_nonsocial	n/a	16	-7	n/a	n/a	n/a
4.513649	2	cue_nonsocial_low	n/a	16	-7	n/a	n/a	n/a
11.346648	2	cue_nonsocial	n/a	32	9	n/a	n/a	n/a
11.346648	2	cue_nonsocial_high	n/a	32	9	n/a	n/a	n/a
18.997284	2	cue_nonsocial	n/a	32	9	n/a	n/a	n/a
18.997284	2	cue_nonsocial_high	n/a	32	9	n/a	n/a	n/a
28.357344	2	cue_social	n/a	16	-7	n/a	n/a	n/a
28.357344	2	cue_social_low	n/a	16	-7	n/a	n/a	n/a
35.101160	2	cue_social	n/a	32	9	n/a	n/a	n/a
35.101160	2	cue_social_high	n/a	32	9	n/a	n/a	n/a
41.926838	2	cue_social	n/a	16	-7	n/a	n/a	n/a
41.926838	2	cue_social_low	n/a	16	-7	n/a	n/a	n/a
49.652350	2	cue_social	n/a	32	9	n/a	n/a	n/a
49.652350	2	cue_social_high	n/a	32	9	n/a	n/a	n/a
56.498714	2	cue_social	n/a	32	9	n/a	n/a	n/a
56.498714	2	cue_social_high	n/a	32	9	n/a	n/a	n/a
64.046890	2	cue_nonsocial	n/a	16	-7	n/a	n/a	n/a
64.046890	2	cue_nonsocial_low	n/a	16	-7	n/a	n/a	n/a
73.313290	2	cue_nonsocial	n/a	32	9	n/a	n/a	n/a
73.313290	2	cue_nonsocial_high	n/a	32	9	n/a	n/a	n/a
80.244850	2	cue_social	n/a	16	-7	n/a	n/a	n/a
80.244850	2	cue_social_low	n/a	16	-7	n/a	n/a	n/a
86.979500	2	cue_nonsocial	n/a	16	-7	n/a	n/a	n/a
86.979500	2	cue_nonsocial_low	n/a	16	-7	n/a	n/a	n/a
93.813126	2	cue_nonsocial	n/a	32	9	n/a	n/a	n/a
93.813126	2	cue_nonsocial_high	n/a	32	9	n/a	n/a	n/a
101.563370	2	cue_social	n/a	16	-7	n/a	n/a	n/a
101.563370	2	cue_social_low	n/a	16	-7	n/a	n/a	n/a
109.096370	2	cue_nonsocial	n/a	32	9	n/a	n/a	n/a
109.096370	2	cue_nonsocial_high	n/a	32	9	n/a	n/a	n/a
119.971110	2	cue_social	n/a	16	-7	n/a	n/a	n/a
119.971110	2	cue_social_low	n/a	16	-7	n/a	n/a	n/a
129.315140	2	cue_social	n/a	32	9	n/a	n/a	n/a
129.315140	2	cue_social_high	n/a	32	9	n/a	n/a	n/a
138.463530	2	cue_nonsocial	n/a	32	9	n/a	n/a	n/a
138.463530	2	cue_nonsocial_high	n/a	32	9	n/a	n/a	n/a
147.828080	2	cue_social	n/a	16	-7	n/a	n/a	n/a
147.828080	2	cue_social_low	n/a	16	-7	n/a	n/a	n/a
154.563660	2	cue_nonsocial	n/a	16	-7	n/a	n/a	n/a
154.563660	2	cue_nonsocial_low	n/a	16	-7	n/a	n/a	n/a
161.396840	2	cue_nonsocial	n/a	16	-7	n/a	n/a	n/a
161.396840	2	cue_nonsocial_low	n/a	16	-7	n/a	n/a	n/a
169.145260	2	cue_social	n/a	16	-7	n/a	n/a	n/a
169.145260	2	cue_social_low	n/a	16	-7	n/a	n/a	n/a
178.419710	2	cue_social	n/a	16	-7	n/a	n/a	n/a
178.419710	2	cue_social_low	n/a	16	-7	n/a	n/a	n/a
185.130200	2	cue_nonsocial	n/a	16	-7	n/a	n/a	n/a
185.130200	2	cue_nonsocial_low	n/a	16	-7	n/a	n/a	n/a
192.044650	2	cue_social	n/a	16	-7	n/a	n/a	n/a
192.044650	2	cue_social_low	n/a	16	-7	n/a	n/a	n/a
198.796050	2	cue_nonsocial	n/a	32	9	n/a	n/a	n/a
198.796050	2	cue_nonsocial_high	n/a	32	9	n/a	n/a	n/a
205.629330	2	cue_nonsocial	n/a	16	-7	n/a	n/a	n/a
205.629330	2	cue_nonsocial_low	n/a	16	-7	n/a	n/a	n/a
213.279880	2	cue_nonsocial	n/a	16	-7	n/a	n/a	n/a
213.279880	2	cue_nonsocial_low	n/a	16	-7	n/a	n/a	n/a
220.983730	2	cue_social	n/a	16	-7	n/a	n/a	n/a
220.983730	2	cue_social_low	n/a	16	-7	n/a	n/a	n/a
227.837900	2	cue_social	n/a	16	-7	n/a	n/a	n/a
227.837900	2	cue_social_low	n/a	16	-7	n/a	n/a	n/a
235.396590	2	cue_nonsocial	n/a	16	-7	n/a	n/a	n/a
235.396590	2	cue_nonsocial_low	n/a	16	-7	n/a	n/a	n/a
242.229700	2	cue_nonsocial	n/a	16	-7	n/a	n/a	n/a
242.229700	2	cue_nonsocial_low	n/a	16	-7	n/a	n/a	n/a
249.929180	2	cue_social	n/a	32	9	n/a	n/a	n/a
249.929180	2	cue_social_high	n/a	32	9	n/a	n/a	n/a
257.572540	2	cue_social	n/a	32	9	n/a	n/a	n/a
257.572540	2	cue_social_high	n/a	32	9	n/a	n/a	n/a
264.357540	2	cue_social	n/a	32	9	n/a	n/a	n/a
264.357540	2	cue_social_high	n/a	32	9	n/a	n/a	n/a
271.190000	2	cue_nonsocial	n/a	16	-7	n/a	n/a	n/a
271.190000	2	cue_nonsocial_low	n/a	16	-7	n/a	n/a	n/a
278.087000	2	cue_social	n/a	32	9	n/a	n/a	n/a
278.087000	2	cue_social_high	n/a	32	9	n/a	n/a	n/a
284.845860	2	cue_nonsocial	n/a	16	-7	n/a	n/a	n/a
284.845860	2	cue_nonsocial_low	n/a	16	-7	n/a	n/a	n/a
292.496700	2	cue_nonsocial	n/a	16	-7	n/a	n/a	n/a
292.496700	2	cue_nonsocial_low	n/a	16	-7	n/a	n/a	n/a
299.418100	2	cue_social	n/a	16	-7	n/a	n/a	n/a
299.418100	2	cue_social_low	n/a	16	-7	n/a	n/a	n/a
310.278840	2	cue_social	n/a	16	-7	n/a	n/a	n/a
310.278840	2	cue_social_low	n/a	16	-7	n/a	n/a	n/a
322.763280	2	cue_social	n/a	32	9	n/a	n/a	n/a
322.763280	2	cue_social_high	n/a	32	9	n/a	n/a	n/a
329.513100	2	cue_nonsocial	n/a	32	9	n/a	n/a	n/a
329.513100	2	cue_nonsocial_high	n/a	32	9	n/a	n/a	n/a
340.528350	2	cue_social	n/a	32	9	n/a	n/a	n/a
340.528350	2	cue_social_high	n/a	32	9	n/a	n/a	n/a
349.628970	2	cue_nonsocial	n/a	32	9	n/a	n/a	n/a
349.628970	2	cue_nonsocial_high	n/a	32	9	n/a	n/a	n/a
357.279360	2	cue_nonsocial	n/a	32	9	n/a	n/a	n/a
357.279360	2	cue_nonsocial_high	n/a	32	9	n/a	n/a	n/a
364.193330	2	cue_social	n/a	32	9	n/a	n/a	n/a
364.193330	2	cue_social_high	n/a	32	9	n/a	n/a	n/a
370.945950	2	cue_nonsocial	n/a	16	-7	n/a	n/a	n/a
370.945950	2	cue_nonsocial_low	n/a	16	-7	n/a	n/a	n/a
6.519570	3.183317	dec_nonsocial_choice	3.183317	16.000000	n/a	4	1.888021e-02	1.888021e-02
6.519570	3.183317	dec_choice	3.183317	16.000000	n/a	4	1.692708e-02	1.692708e-02
6.519570	3.183317	dec_nonsocial_accept	3.183317	16.000000	n/a	4	-2.556818e-02	-2.556818e-02
6.519570	3.183317	dec_accept	3.183317	16.000000	n/a	4	2.853261e-02	2.853261e-02
6.519570	3.183317	dec_nonsocial_high	3.183317	16.000000	n/a	4	1.692708e-02	1.692708e-02
6.519570	3.183317	dec_nonsocial_accept_high	3.183317	16.000000	n/a	4	2.853261e-02	2.853261e-02
13.352494	1.333327	dec_nonsocial_choice	1.333327	32.000000	n/a	0	0	-2.311198e-01
13.352494	1.333327	dec_choice	1.333327	32.000000	n/a	0	0	-2.330729e-01
13.352494	1.333327	dec_nonsocial_reject	1.333327	32.000000	n/a	0	0	3.666667e-01
13.352494	1.333327	dec_reject	1.333327	32.000000	n/a	0	0	0
13.352494	1.333327	dec_nonsocial_low	1.333327	32.000000	n/a	0	-2.330729e-01	-2.330729e-01
13.352494	1.333327	dec_nonsocial_reject_low	1.333327	32.000000	n/a	16	0	-5.000000e-01
21.002089	1.366490	dec_nonsocial_choice	1.366490	32.000000	n/a	16	2.688802e-01	2.688802e-01
21.002089	1.366490	dec_choice	1.366490	32.000000	n/a	16	2.669271e-01	2.669271e-01
21.002089	1.366490	dec_nonsocial_accept	1.366490	32.000000	n/a	16	2.244318e-01	2.244318e-01
21.002089	1.366490	dec_accept	1.366490	32.000000	n/a	16	2.785326e-01	2.785326e-01
21.002089	1.366490	dec_nonsocial_high	1.366490	32.000000	n/a	16	2.669271e-01	2.669271e-01
21.002089	1.366490	dec_nonsocial_accept_high	1.366490	32.000000	n/a	16	2.785326e-01	2.785326e-01
30.252106	1.383902	dec_social_choice	1.383902	16.000000	n/a	0	0	-2.311198e-01
30.252106	1.383902	dec_choice	1.383902	16.000000	n/a	0	0	-2.291667e-01
30.252106	1.383902	dec_social_reject	1.383902	16.000000	n/a	0	0	-8.333333e-03
30.252106	1.383902	dec_reject	1.383902	16.000000	n/a	0	0	1.785714e-02
30.252106	1.383902	dec_social_low	1.383902	16.000000	n/a	0	-2.291667e-01	-2.291667e-01
30.252106	1.383902	dec_social_reject_low	1.383902	16.000000	n/a	2	-1.041667e-01	-2.291667e-01
37.085180	1.117365	dec_social_choice	1.117365	32.000000	n/a	16	2.688802e-01	2.688802e-01
37.085180	1.117365	dec_choice	1.117365	32.000000	n/a	16	2.708333e-01	2.708333e-01
37.085180	1.117365	dec_social_accept	1.117365	32.000000	n/a	16	2.244318e-01	2.244318e-01
37.085180	1.117365	dec_accept	1.117365	32.000000	n/a	16	1.000000e-01	1.000000e-01
37.085180	1.117365	dec_social_accept_high	1.117365	32.000000	n/a	16	2.708333e-01	2.708333e-01
43.918970	1.066842	dec_social_choice	1.066842	16.000000	n/a	8	2.688802e-01	2.688802e-01
43.918970	1.066842	dec_choice	1.066842	16.000000	n/a	8	2.708333e-01	2.708333e-01
43.918970	1.066842	dec_social_accept	1.066842	16.000000	n/a	8	2.244318e-01	2.244318e-01
43.918970	1.066842	dec_accept	1.066842	16.000000	n/a	8	1.000000e-01	1.000000e-01
43.918970	1.066842	dec_social_accept_high	1.066842	16.000000	n/a	8	2.708333e-01	2.708333e-01
51.569340	1.015858	dec_social_choice	1.015858	32.000000	n/a	0	0	-2.311198e-01
51.569340	1.015858	dec_choice	1.015858	32.000000	n/a	0	0	-2.291667e-01
51.569340	1.015858	dec_social_reject	1.015858	32.000000	n/a	0	0	-3.958333e-02
51.569340	1.015858	dec_reject	1.015858	32.000000	n/a	0	0	-1.339286e-02
51.569340	1.015858	dec_social_reject_low	1.015858	32.000000	n/a	3	-1.354167e-01	-2.291667e-01
58.403200	0.899026	dec_social_choice	0.899026	32.000000	n/a	0	0	-2.311198e-01
58.403200	0.899026	dec_choice	0.899026	32.000000	n/a	0	0	-2.291667e-01
58.403200	0.899026	dec_social_reject	0.899026	32.000000	n/a	0	0	-3.958333e-02
58.403200	0.899026	dec_reject	0.899026	32.000000	n/a	0	0	-1.339286e-02
58.403200	0.899026	dec_social_reject_low	0.899026	32.000000	n/a	3	-1.354167e-01	-2.291667e-01
66.052030	1.549981	dec_nonsocial_choice	1.549981	16.000000	n/a	2	-1.061198e-01	-1.061198e-01
66.052030	1.549981	dec_choice	1.549981	16.000000	n/a	2	-1.080729e-01	-1.080729e-01
66.052030	1.549981	dec_nonsocial_accept	1.549981	16.000000	n/a	2	-1.505682e-01	-1.505682e-01
66.052030	1.549981	dec_accept	1.549981	16.000000	n/a	2	-9.646739e-02	-9.646739e-02
66.052030	1.549981	dec_nonsocial_low	1.549981	16.000000	n/a	2	-1.080729e-01	-1.080729e-01
66.052030	1.549981	dec_nonsocial_accept_low	1.549981	16.000000	n/a	2	-9.646739e-02	-9.646739e-02
75.318970	1.565919	dec_nonsocial_choice	1.565919	32.000000	n/a	2	-1.686198e-01	-1.686198e-01
75.318970	1.565919	dec_choice	1.565919	32.000000	n/a	2	-1.705729e-01	-1.705729e-01
75.318970	1.565919	dec_nonsocial_accept	1.565919	32.000000	n/a	2	-2.130682e-01	-2.130682e-01
75.318970	1.565919	dec_accept	1.565919	32.000000	n/a	2	-1.589674e-01	-1.589674e-01
75.318970	1.565919	dec_nonsocial_low	1.565919	32.000000	n/a	2	-1.705729e-01	-1.705729e-01
75.318970	1.565919	dec_nonsocial_accept_low	1.565919	32.000000	n/a	2	-1.589674e-01	-1.589674e-01
82.151566	1.084580	dec_social_choice	1.084580	16.000000	n/a	0	0	-2.311198e-01
82.151566	1.084580	dec_choice	1.084580	16.000000	n/a	0	0	-2.291667e-01
82.151566	1.084580	dec_social_reject	1.084580	16.000000	n/a	0	0	-7.083333e-02
82.151566	1.084580	dec_reject	1.084580	16.000000	n/a	0	0	-4.464286e-02
82.151566	1.084580	dec_social_reject_low	1.084580	16.000000	n/a	1	-1.666667e-01	-2.291667e-01
88.984890	1.384080	dec_nonsocial_choice	1.384080	16.000000	n/a	8	2.688802e-01	2.688802e-01
88.984890	1.384080	dec_choice	1.384080	16.000000	n/a	8	2.669271e-01	2.669271e-01
88.984890	1.384080	dec_nonsocial_accept	1.384080	16.000000	n/a	8	2.244318e-01	2.244318e-01
88.984890	1.384080	dec_accept	1.384080	16.000000	n/a	8	2.785326e-01	2.785326e-01
88.984890	1.384080	dec_nonsocial_high	1.384080	16.000000	n/a	8	2.669271e-01	2.669271e-01
88.984890	1.384080	dec_nonsocial_accept_high	1.384080	16.000000	n/a	8	2.785326e-01	2.785326e-01
95.819000	1.101007	dec_nonsocial_choice	1.101007	32.000000	n/a	2	-1.686198e-01	-1.686198e-01
95.819000	1.101007	dec_choice	1.101007	32.000000	n/a	2	-1.705729e-01	-1.705729e-01
95.819000	1.101007	dec_nonsocial_accept	1.101007	32.000000	n/a	2	-2.130682e-01	-2.130682e-01
95.819000	1.101007	dec_accept	1.101007	32.000000	n/a	2	-1.589674e-01	-1.589674e-01
95.819000	1.101007	dec_nonsocial_low	1.101007	32.000000	n/a	2	-1.705729e-01	-1.705729e-01
95.819000	1.101007	dec_nonsocial_accept_low	1.101007	32.000000	n/a	2	-1.589674e-01	-1.589674e-01
103.451870	1.283162	dec_social_choice	1.283162	16.000000	n/a	0	0	-2.311198e-01
103.451870	1.283162	dec_choice	1.283162	16.000000	n/a	0	0	-2.291667e-01
103.451870	1.283162	dec_social_reject	1.283162	16.000000	n/a	0	0	-7.083333e-02
103.451870	1.283162	dec_reject	1.283162	16.000000	n/a	0	0	-4.464286e-02
103.451870	1.283162	dec_social_low	1.283162	16.000000	n/a	0	-2.291667e-01	-2.291667e-01
103.451870	1.283162	dec_social_reject_low	1.283162	16.000000	n/a	1	-1.666667e-01	-2.291667e-01
111.102450	1.249740	dec_nonsocial_choice	1.249740	32.000000	n/a	8	1.888021e-02	1.888021e-02
111.102450	1.249740	dec_choice	1.249740	32.000000	n/a	8	1.692708e-02	1.692708e-02
111.102450	1.249740	dec_nonsocial_accept	1.249740	32.000000	n/a	8	-2.556818e-02	-2.556818e-02
111.102450	1.249740	dec_accept	1.249740	32.000000	n/a	8	2.853261e-02	2.853261e-02
111.102450	1.249740	dec_nonsocial_high	1.249740	32.000000	n/a	8	1.692708e-02	1.692708e-02
111.102450	1.249740	dec_nonsocial_accept_high	1.249740	32.000000	n/a	8	2.853261e-02	2.853261e-02
121.969765	1.465224	dec_social_choice	1.465224	16.000000	n/a	0	0	-2.311198e-01
121.969765	1.465224	dec_choice	1.465224	16.000000	n/a	0	0	-2.291667e-01
121.969765	1.465224	dec_social_reject	1.465224	16.000000	n/a	0	0	-7.083333e-02
121.969765	1.465224	dec_reject	1.465224	16.000000	n/a	0	0	-4.464286e-02
121.969765	1.465224	dec_social_low	1.465224	16.000000	n/a	0	-2.291667e-01	-2.291667e-01
121.969765	1.465224	dec_social_reject_low	1.465224	16.000000	n/a	1	-1.666667e-01	-2.291667e-01
131.219220	1.182997	dec_social_choice	1.182997	32.000000	n/a	16	2.688802e-01	2.688802e-01
131.219220	1.182997	dec_choice	1.182997	32.000000	n/a	16	2.708333e-01	2.708333e-01
131.219220	1.182997	dec_social_accept	1.182997	32.000000	n/a	16	2.244318e-01	2.244318e-01
131.219220	1.182997	dec_accept	1.182997	32.000000	n/a	16	1.000000e-01	1.000000e-01
131.219220	1.182997	dec_social_high	1.182997	32.000000	n/a	16	2.708333e-01	2.708333e-01
131.219220	1.182997	dec_social_accept_high	1.182997	32.000000	n/a	16	2.708333e-01	2.708333e-01
140.469000	0.816211	dec_nonsocial_choice	0.816211	32.000000	n/a	16	2.688802e-01	2.688802e-01
140.469000	0.816211	dec_choice	0.816211	32.000000	n/a	16	2.669271e-01	2.669271e-01
140.469000	0.816211	dec_nonsocial_accept	0.816211	32.000000	n/a	16	2.244318e-01	2.244318e-01
140.469000	0.816211	dec_accept	0.816211	32.000000	n/a	16	2.785326e-01	2.785326e-01
140.469000	0.816211	dec_nonsocial_accept_high	0.816211	32.000000	n/a	16	1.000000e-01	1.000000e-01
149.735820	0.983454	dec_social_choice	0.983454	16.000000	n/a	0	0	-2.311198e-01
149.735820	0.983454	dec_choice	0.983454	16.000000	n/a	0	0	-2.291667e-01
149.735820	0.983454	dec_social_reject	0.983454	16.000000	n/a	0	0	-8.333333e-03
149.735820	0.983454	dec_reject	0.983454	16.000000	n/a	0	0	1.785714e-02
149.735820	0.983454	dec_social_reject_low	0.983454	16.000000	n/a	2	-1.041667e-01	-2.291667e-01
156.568590	0.932945	dec_nonsocial_choice	0.932945	16.000000	n/a	1	-1.686198e-01	-1.686198e-01
156.568590	0.932945	dec_choice	0.932945	16.000000	n/a	1	-1.705729e-01	-1.705729e-01
156.568590	0.932945	dec_nonsocial_accept	0.932945	16.000000	n/a	1	-2.130682e-01	-2.130682e-01
156.568590	0.932945	dec_accept	0.932945	16.000000	n/a	1	-1.589674e-01	-1.589674e-01
156.568590	0.932945	dec_nonsocial_low	0.932945	16.000000	n/a	1	-1.705729e-01	-1.705729e-01
156.568590	0.932945	dec_nonsocial_accept_low	0.932945	16.000000	n/a	1	-1.589674e-01	-1.589674e-01
163.402880	0.982804	dec_nonsocial_choice	0.982804	16.000000	n/a	4	1.888021e-02	1.888021e-02
163.402880	0.982804	dec_choice	0.982804	16.000000	n/a	4	1.692708e-02	1.692708e-02
163.402880	0.982804	dec_nonsocial_accept	0.982804	16.000000	n/a	4	-2.556818e-02	-2.556818e-02
163.402880	0.982804	dec_accept	0.982804	16.000000	n/a	4	2.853261e-02	2.853261e-02
163.402880	0.982804	dec_nonsocial_accept_high	0.982804	16.000000	n/a	4	-1.500000e-01	-1.500000e-01
171.052080	0.750162	dec_social_choice	0.750162	16.000000	n/a	4	1.888021e-02	1.888021e-02
171.052080	0.750162	dec_choice	0.750162	16.000000	n/a	4	2.083333e-02	2.083333e-02
171.052080	0.750162	dec_social_accept	0.750162	16.000000	n/a	4	-2.556818e-02	-2.556818e-02
171.052080	0.750162	dec_accept	0.750162	16.000000	n/a	4	-1.500000e-01	-1.500000e-01
171.052080	0.750162	dec_social_accept_high	0.750162	16.000000	n/a	4	2.083333e-02	2.083333e-02
180.302020	0.966660	dec_social_choice	0.966660	16.000000	n/a	0	0	-2.311198e-01
180.302020	0.966660	dec_choice	0.966660	16.000000	n/a	0	0	-2.291667e-01
180.302020	0.966660	dec_social_reject	0.966660	16.000000	n/a	0	0	-7.083333e-02
180.302020	0.966660	dec_reject	0.966660	16.000000	n/a	0	0	-4.464286e-02
180.302020	0.966660	dec_social_reject_low	0.966660	16.000000	n/a	1	-1.666667e-01	-2.291667e-01
187.135730	0.849885	dec_nonsocial_choice	0.849885	16.000000	n/a	2	-1.061198e-01	-1.061198e-01
187.135730	0.849885	dec_choice	0.849885	16.000000	n/a	2	-1.080729e-01	-1.080729e-01
187.135730	0.849885	dec_nonsocial_accept	0.849885	16.000000	n/a	2	-1.505682e-01	-1.505682e-01
187.135730	0.849885	dec_accept	0.849885	16.000000	n/a	2	-9.646739e-02	-9.646739e-02
187.135730	0.849885	dec_nonsocial_accept_low	0.849885	16.000000	n/a	2	-2.750000e-01	-2.750000e-01
193.967860	1.417913	dec_social_choice	1.417913	16.000000	n/a	0	0	-2.311198e-01
193.967860	1.417913	dec_choice	1.417913	16.000000	n/a	0	0	-2.291667e-01
193.967860	1.417913	dec_social_reject	1.417913	16.000000	n/a	0	0	-7.083333e-02
193.967860	1.417913	dec_reject	1.417913	16.000000	n/a	0	0	-4.464286e-02
193.967860	1.417913	dec_social_reject_low	1.417913	16.000000	n/a	1	-1.666667e-01	-2.291667e-01
200.802570	0.532894	dec_nonsocial_choice	0.532894	32.000000	n/a	8	1.888021e-02	1.888021e-02
200.802570	0.532894	dec_choice	0.532894	32.000000	n/a	8	1.692708e-02	1.692708e-02
200.802570	0.532894	dec_nonsocial_accept	0.532894	32.000000	n/a	8	-2.556818e-02	-2.556818e-02
200.802570	0.532894	dec_accept	0.532894	32.000000	n/a	8	2.853261e-02	2.853261e-02
200.802570	0.532894	dec_nonsocial_accept_high	0.532894	32.000000	n/a	8	-1.500000e-01	-1.500000e-01
207.635000	0.983710	dec_nonsocial_choice	0.983710	16.000000	n/a	1	-1.686198e-01	-1.686198e-01
207.635000	0.983710	dec_choice	0.983710	16.000000	n/a	1	-1.705729e-01	-1.705729e-01
207.635000	0.983710	dec_nonsocial_accept	0.983710	16.000000	n/a	1	-2.130682e-01	-2.130682e-01
207.635000	0.983710	dec_accept	0.983710	16.000000	n/a	1	-1.589674e-01	-1.589674e-01
207.635000	0.983710	dec_nonsocial_low	0.983710	16.000000	n/a	1	-1.705729e-01	-1.705729e-01
207.635000	0.983710	dec_nonsocial_accept_low	0.983710	16.000000	n/a	1	-1.589674e-01	-1.589674e-01
215.285300	0.650159	dec_nonsocial_choice	0.650159	16.000000	n/a	2	-1.061198e-01	-1.061198e-01
215.285300	0.650159	dec_choice	0.650159	16.000000	n/a	2	-1.080729e-01	-1.080729e-01
215.285300	0.650159	dec_nonsocial_accept	0.650159	16.000000	n/a	2	-1.505682e-01	-1.505682e-01
215.285300	0.650159	dec_accept	0.650159	16.000000	n/a	2	-9.646739e-02	-9.646739e-02
215.285300	0.650159	dec_nonsocial_accept_low	0.650159	16.000000	n/a	2	-2.750000e-01	-2.750000e-01
222.935000	0.850372	dec_social_choice	0.850372	16.000000	n/a	0	0	-2.311198e-01
222.935000	0.850372	dec_choice	0.850372	16.000000	n/a	0	0	-2.291667e-01
222.935000	0.850372	dec_social_reject	0.850372	16.000000	n/a	0	0	1.166667e-01
222.935000	0.850372	dec_reject	0.850372	16.000000	n/a	0	0	1.428571e-01
222.935000	0.850372	dec_social_reject_low	0.850372	16.000000	n/a	4	2.083333e-02	-2.291667e-01
229.767850	0.667602	dec_social_choice	0.667602	16.000000	n/a	8	2.688802e-01	2.688802e-01
229.767850	0.667602	dec_choice	0.667602	16.000000	n/a	8	2.708333e-01	2.708333e-01
229.767850	0.667602	dec_social_accept	0.667602	16.000000	n/a	8	2.244318e-01	2.244318e-01
229.767850	0.667602	dec_accept	0.667602	16.000000	n/a	8	1.000000e-01	1.000000e-01
229.767850	0.667602	dec_social_accept_high	0.667602	16.000000	n/a	8	2.708333e-01	2.708333e-01
237.401820	0.934487	dec_nonsocial_choice	0.934487	16.000000	n/a	8	2.688802e-01	2.688802e-01
237.401820	0.934487	dec_choice	0.934487	16.000000	n/a	8	2.669271e-01	2.669271e-01
237.401820	0.934487	dec_nonsocial_accept	0.934487	16.000000	n/a	8	2.244318e-01	2.244318e-01
237.401820	0.934487	dec_accept	0.934487	16.000000	n/a	8	2.785326e-01	2.785326e-01
237.401820	0.934487	dec_nonsocial_high	0.934487	16.000000	n/a	8	2.669271e-01	2.669271e-01
237.401820	0.934487	dec_nonsocial_accept_high	0.934487	16.000000	n/a	8	2.785326e-01	2.785326e-01
244.234850	1.084058	dec_nonsocial_choice	1.084058	16.000000	n/a	2	-1.061198e-01	-1.061198e-01
244.234850	1.084058	dec_choice	1.084058	16.000000	n/a	2	-1.080729e-01	-1.080729e-01
244.234850	1.084058	dec_nonsocial_accept	1.084058	16.000000	n/a	2	-1.505682e-01	-1.505682e-01
244.234850	1.084058	dec_accept	1.084058	16.000000	n/a	2	-9.646739e-02	-9.646739e-02
244.234850	1.084058	dec_nonsocial_low	1.084058	16.000000	n/a	2	-1.080729e-01	-1.080729e-01
244.234850	1.084058	dec_nonsocial_accept_low	1.084058	16.000000	n/a	2	-9.646739e-02	-9.646739e-02
251.868410	1.000367	dec_social_choice	1.000367	32.000000	n/a	8	1.888021e-02	1.888021e-02
251.868410	1.000367	dec_choice	1.000367	32.000000	n/a	8	2.083333e-02	2.083333e-02
251.868410	1.000367	dec_social_accept	1.000367	32.000000	n/a	8	-2.556818e-02	-2.556818e-02
251.868410	1.000367	dec_accept	1.000367	32.000000	n/a	8	-1.500000e-01	-1.500000e-01
251.868410	1.000367	dec_social_high	1.000367	32.000000	n/a	8	2.083333e-02	2.083333e-02
251.868410	1.000367	dec_social_accept_high	1.000367	32.000000	n/a	8	2.083333e-02	2.083333e-02
259.520320	0.964608	dec_social_choice	0.964608	32.000000	n/a	16	2.688802e-01	2.688802e-01
259.520320	0.964608	dec_choice	0.964608	32.000000	n/a	16	2.708333e-01	2.708333e-01
259.520320	0.964608	dec_social_accept	0.964608	32.000000	n/a	16	2.244318e-01	2.244318e-01
259.520320	0.964608	dec_accept	0.964608	32.000000	n/a	16	1.000000e-01	1.000000e-01
259.520320	0.964608	dec_social_accept_high	0.964608	32.000000	n/a	16	2.708333e-01	2.708333e-01
266.351780	0.816350	dec_social_choice	0.816350	32.000000	n/a	0	0	-2.311198e-01
266.351780	0.816350	dec_choice	0.816350	32.000000	n/a	0	0	-2.291667e-01
266.351780	0.816350	dec_social_reject	0.816350	32.000000	n/a	0	0	-7.083333e-02
266.351780	0.816350	dec_reject	0.816350	32.000000	n/a	0	0	-4.464286e-02
266.351780	0.816350	dec_social_reject_low	0.816350	32.000000	n/a	2	-1.666667e-01	-2.291667e-01
273.185520	0.899789	dec_nonsocial_choice	0.899789	16.000000	n/a	8	2.688802e-01	2.688802e-01
273.185520	0.899789	dec_choice	0.899789	16.000000	n/a	8	2.669271e-01	2.669271e-01
273.185520	0.899789	dec_nonsocial_accept	0.899789	16.000000	n/a	8	2.244318e-01	2.244318e-01
273.185520	0.899789	dec_accept	0.899789	16.000000	n/a	8	2.785326e-01	2.785326e-01
273.185520	0.899789	dec_nonsocial_high	0.899789	16.000000	n/a	8	2.669271e-01	2.669271e-01
273.185520	0.899789	dec_nonsocial_accept_high	0.899789	16.000000	n/a	8	2.785326e-01	2.785326e-01
280.018620	1.132532	dec_social_choice	1.132532	32.000000	n/a	0	0	-2.311198e-01
280.018620	1.132532	dec_choice	1.132532	32.000000	n/a	0	0	-2.291667e-01
280.018620	1.132532	dec_social_reject	1.132532	32.000000	n/a	0	0	-3.958333e-02
280.018620	1.132532	dec_reject	1.132532	32.000000	n/a	0	0	-1.339286e-02
280.018620	1.132532	dec_social_low	1.132532	32.000000	n/a	0	-2.291667e-01	-2.291667e-01
280.018620	1.132532	dec_social_reject_low	1.132532	32.000000	n/a	3	-1.354167e-01	-2.291667e-01
286.852300	0.982694	dec_nonsocial_choice	0.982694	16.000000	n/a	1	-1.686198e-01	-1.686198e-01
286.852300	0.982694	dec_choice	0.982694	16.000000	n/a	1	-1.705729e-01	-1.705729e-01
286.852300	0.982694	dec_nonsocial_accept	0.982694	16.000000	n/a	1	-2.130682e-01	-2.130682e-01
286.852300	0.982694	dec_accept	0.982694	16.000000	n/a	1	-1.589674e-01	-1.589674e-01
286.852300	0.982694	dec_nonsocial_low	0.982694	16.000000	n/a	1	-1.705729e-01	-1.705729e-01
286.852300	0.982694	dec_nonsocial_accept_low	0.982694	16.000000	n/a	1	-1.589674e-01	-1.589674e-01
294.501900	0.833274	dec_nonsocial_choice	0.833274	16.000000	n/a	2	-1.061198e-01	-1.061198e-01
294.501900	0.833274	dec_choice	0.833274	16.000000	n/a	2	-1.080729e-01	-1.080729e-01
294.501900	0.833274	dec_nonsocial_accept	0.833274	16.000000	n/a	2	-1.505682e-01	-1.505682e-01
294.501900	0.833274	dec_accept	0.833274	16.000000	n/a	2	-9.646739e-02	-9.646739e-02
294.501900	0.833274	dec_nonsocial_accept_low	0.833274	16.000000	n/a	2	-2.750000e-01	-2.750000e-01
301.336120	0.749251	dec_social_choice	0.749251	16.000000	n/a	4	1.888021e-02	1.888021e-02
301.336120	0.749251	dec_choice	0.749251	16.000000	n/a	4	2.083333e-02	2.083333e-02
301.336120	0.749251	dec_social_accept	0.749251	16.000000	n/a	4	-2.556818e-02	-2.556818e-02
301.336120	0.749251	dec_accept	0.749251	16.000000	n/a	4	-1.500000e-01	-1.500000e-01
301.336120	0.749251	dec_social_accept_high	0.749251	16.000000	n/a	4	2.083333e-02	2.083333e-02
312.201450	1.400388	dec_social_choice	1.400388	16.000000	n/a	0	0	-2.311198e-01
312.201450	1.400388	dec_choice	1.400388	16.000000	n/a	0	0	-2.291667e-01
312.201450	1.400388	dec_social_reject	1.400388	16.000000	n/a	0	0	1.166667e-01
312.201450	1.400388	dec_reject	1.400388	16.000000	n/a	0	0	1.428571e-01
312.201450	1.400388	dec_social_low	1.400388	16.000000	n/a	0	-2.291667e-01	-2.291667e-01
312.201450	1.400388	dec_social_reject_low	1.400388	16.000000	n/a	4	2.083333e-02	-2.291667e-01
324.684170	1.151168	dec_social_choice	1.151168	32.000000	n/a	0	0	-2.311198e-01
324.684170	1.151168	dec_choice	1.151168	32.000000	n/a	0	0	-2.291667e-01
324.684170	1.151168	dec_social_reject	1.151168	32.000000	n/a	0	0	-3.958333e-02
324.684170	1.151168	dec_reject	1.151168	32.000000	n/a	0	0	-1.339286e-02
324.684170	1.151168	dec_social_low	1.151168	32.000000	n/a	0	-2.291667e-01	-2.291667e-01
324.684170	1.151168	dec_social_reject_low	1.151168	32.000000	n/a	3	-1.354167e-01	-2.291667e-01
331.518980	1.115714	dec_nonsocial_choice	1.115714	32.000000	n/a	8	1.888021e-02	1.888021e-02
331.518980	1.115714	dec_choice	1.115714	32.000000	n/a	8	1.692708e-02	1.692708e-02
331.518980	1.115714	dec_nonsocial_accept	1.115714	32.000000	n/a	8	-2.556818e-02	-2.556818e-02
331.518980	1.115714	dec_accept	1.115714	32.000000	n/a	8	2.853261e-02	2.853261e-02
331.518980	1.115714	dec_nonsocial_high	1.115714	32.000000	n/a	8	1.692708e-02	1.692708e-02
331.518980	1.115714	dec_nonsocial_accept_high	1.115714	32.000000	n/a	8	2.853261e-02	2.853261e-02
342.385200	0.949509	dec_social_choice	0.949509	32.000000	n/a	16	2.688802e-01	2.688802e-01
342.385200	0.949509	dec_choice	0.949509	32.000000	n/a	16	2.708333e-01	2.708333e-01
342.385200	0.949509	dec_social_accept	0.949509	32.000000	n/a	16	2.244318e-01	2.244318e-01
342.385200	0.949509	dec_accept	0.949509	32.000000	n/a	16	1.000000e-01	1.000000e-01
342.385200	0.949509	dec_social_accept_high	0.949509	32.000000	n/a	16	2.708333e-01	2.708333e-01
351.635740	1.282978	dec_nonsocial_choice	1.282978	32.000000	n/a	3	-1.373698e-01	-1.373698e-01
351.635740	1.282978	dec_choice	1.282978	32.000000	n/a	3	-1.393229e-01	-1.393229e-01
351.635740	1.282978	dec_nonsocial_accept	1.282978	32.000000	n/a	3	-1.818182e-01	-1.818182e-01
351.635740	1.282978	dec_accept	1.282978	32.000000	n/a	3	-1.277174e-01	-1.277174e-01
351.635740	1.282978	dec_nonsocial_low	1.282978	32.000000	n/a	3	-1.393229e-01	-1.393229e-01
351.635740	1.282978	dec_nonsocial_accept_low	1.282978	32.000000	n/a	3	-1.277174e-01	-1.277174e-01
359.285740	1.065300	dec_nonsocial_choice	1.065300	32.000000	n/a	2	-1.686198e-01	-1.686198e-01
359.285740	1.065300	dec_choice	1.065300	32.000000	n/a	2	-1.705729e-01	-1.705729e-01
359.285740	1.065300	dec_nonsocial_accept	1.065300	32.000000	n/a	2	-2.130682e-01	-2.130682e-01
359.285740	1.065300	dec_accept	1.065300	32.000000	n/a	2	-1.589674e-01	-1.589674e-01
359.285740	1.065300	dec_nonsocial_low	1.065300	32.000000	n/a	2	-1.705729e-01	-1.705729e-01
359.285740	1.065300	dec_nonsocial_accept_low	1.065300	32.000000	n/a	2	-1.589674e-01	-1.589674e-01
366.117900	0.767221	dec_social_choice	0.767221	32.000000	n/a	8	1.888021e-02	1.888021e-02
366.117900	0.767221	dec_choice	0.767221	32.000000	n/a	8	2.083333e-02	2.083333e-02
366.117900	0.767221	dec_social_accept	0.767221	32.000000	n/a	8	-2.556818e-02	-2.556818e-02
366.117900	0.767221	dec_accept	0.767221	32.000000	n/a	8	-1.500000e-01	-1.500000e-01
366.117900	0.767221	dec_social_accept_high	0.767221	32.000000	n/a	8	2.083333e-02	2.083333e-02
372.951900	0.850290	dec_nonsocial_choice	0.850290	16.000000	n/a	4	1.888021e-02	1.888021e-02
372.951900	0.850290	dec_choice	0.850290	16.000000	n/a	4	1.692708e-02	1.692708e-02
372.951900	0.850290	dec_nonsocial_accept	0.850290	16.000000	n/a	4	-2.556818e-02	-2.556818e-02
372.951900	0.850290	dec_accept	0.850290	16.000000	n/a	4	2.853261e-02	2.853261e-02
372.951900	0.850290	dec_nonsocial_high	0.850290	16.000000	n/a	4	1.692708e-02	1.692708e-02
372.951900	0.850290	dec_nonsocial_accept_high	0.850290	16.000000	n/a	4	2.853261e-02	2.853261e-02
