onset	duration	trial_type	response_time	Endowment	Endowment_pmod	Decision	Decision_pmod	Offer_pmod
4.509905	2	cue_nonsocial	n/a	32	5	n/a	n/a	n/a
4.509905	2	cue_nonsocial_high	n/a	32	9	n/a	n/a	n/a
11.343868	2	cue_nonsocial	n/a	32	5	n/a	n/a	n/a
11.343868	2	cue_nonsocial_high	n/a	32	9	n/a	n/a	n/a
18.288730	2	cue_social	n/a	32	9	n/a	n/a	n/a
18.288730	2	cue_social_high	n/a	32	5	n/a	n/a	n/a
25.830233	2	cue_social	n/a	16	-7	n/a	n/a	n/a
25.830233	2	cue_social_low	n/a	16	-11	n/a	n/a	n/a
33.565100	2	cue_social	n/a	16	-7	n/a	n/a	n/a
33.565100	2	cue_social_low	n/a	16	-11	n/a	n/a	n/a
44.462520	2	cue_social	n/a	16	-7	n/a	n/a	n/a
44.462520	2	cue_social_low	n/a	16	-11	n/a	n/a	n/a
53.613632	2	cue_social	n/a	16	-7	n/a	n/a	n/a
53.613632	2	cue_social_low	n/a	16	-11	n/a	n/a	n/a
66.077010	2	cue_nonsocial	n/a	32	5	n/a	n/a	n/a
66.077010	2	cue_nonsocial_high	n/a	32	9	n/a	n/a	n/a
73.709400	2	cue_nonsocial	n/a	16	-11	n/a	n/a	n/a
73.709400	2	cue_nonsocial_low	n/a	16	-7	n/a	n/a	n/a
80.553460	2	cue_nonsocial	n/a	16	-11	n/a	n/a	n/a
80.553460	2	cue_nonsocial_low	n/a	16	-7	n/a	n/a	n/a
91.409874	2	cue_nonsocial	n/a	32	5	n/a	n/a	n/a
91.409874	2	cue_nonsocial_high	n/a	32	9	n/a	n/a	n/a
99.154335	2	cue_social	n/a	16	-7	n/a	n/a	n/a
99.154335	2	cue_social_low	n/a	16	-11	n/a	n/a	n/a
105.893715	2	cue_nonsocial	n/a	32	5	n/a	n/a	n/a
105.893715	2	cue_nonsocial_high	n/a	32	9	n/a	n/a	n/a
112.841770	2	cue_social	n/a	16	-7	n/a	n/a	n/a
112.841770	2	cue_social_low	n/a	16	-11	n/a	n/a	n/a
119.662390	2	cue_social	n/a	16	-7	n/a	n/a	n/a
119.662390	2	cue_social_low	n/a	16	-11	n/a	n/a	n/a
127.203520	2	cue_social	n/a	32	9	n/a	n/a	n/a
127.203520	2	cue_social_high	n/a	32	5	n/a	n/a	n/a
134.044530	2	cue_nonsocial	n/a	32	5	n/a	n/a	n/a
134.044530	2	cue_nonsocial_high	n/a	32	9	n/a	n/a	n/a
140.877000	2	cue_nonsocial	n/a	16	-11	n/a	n/a	n/a
140.877000	2	cue_nonsocial_low	n/a	16	-7	n/a	n/a	n/a
147.710160	2	cue_nonsocial	n/a	32	5	n/a	n/a	n/a
147.710160	2	cue_nonsocial_high	n/a	32	9	n/a	n/a	n/a
154.556600	2	cue_social	n/a	32	9	n/a	n/a	n/a
154.556600	2	cue_social_high	n/a	32	5	n/a	n/a	n/a
161.378160	2	cue_social	n/a	32	9	n/a	n/a	n/a
161.378160	2	cue_social_high	n/a	32	5	n/a	n/a	n/a
168.335420	2	cue_social	n/a	16	-7	n/a	n/a	n/a
168.335420	2	cue_social_low	n/a	16	-11	n/a	n/a	n/a
175.861070	2	cue_nonsocial	n/a	32	5	n/a	n/a	n/a
175.861070	2	cue_nonsocial_high	n/a	32	9	n/a	n/a	n/a
182.788130	2	cue_social	n/a	32	9	n/a	n/a	n/a
182.788130	2	cue_social_high	n/a	32	5	n/a	n/a	n/a
189.526600	2	cue_nonsocial	n/a	16	-11	n/a	n/a	n/a
189.526600	2	cue_nonsocial_low	n/a	16	-7	n/a	n/a	n/a
197.286710	2	cue_social	n/a	32	9	n/a	n/a	n/a
197.286710	2	cue_social_high	n/a	32	5	n/a	n/a	n/a
204.009800	2	cue_nonsocial	n/a	32	5	n/a	n/a	n/a
204.009800	2	cue_nonsocial_high	n/a	32	9	n/a	n/a	n/a
213.268140	2	cue_nonsocial	n/a	16	-11	n/a	n/a	n/a
213.268140	2	cue_nonsocial_low	n/a	16	-7	n/a	n/a	n/a
220.110060	2	cue_nonsocial	n/a	32	5	n/a	n/a	n/a
220.110060	2	cue_nonsocial_high	n/a	32	9	n/a	n/a	n/a
226.942520	2	cue_nonsocial	n/a	32	5	n/a	n/a	n/a
226.942520	2	cue_nonsocial_high	n/a	32	9	n/a	n/a	n/a
237.922900	2	cue_social	n/a	32	9	n/a	n/a	n/a
237.922900	2	cue_social_high	n/a	32	5	n/a	n/a	n/a
244.758590	2	cue_social	n/a	32	9	n/a	n/a	n/a
244.758590	2	cue_social_high	n/a	32	5	n/a	n/a	n/a
252.292340	2	cue_nonsocial	n/a	32	5	n/a	n/a	n/a
252.292340	2	cue_nonsocial_high	n/a	32	9	n/a	n/a	n/a
259.935460	2	cue_social	n/a	16	-7	n/a	n/a	n/a
259.935460	2	cue_social_low	n/a	16	-11	n/a	n/a	n/a
267.576320	2	cue_nonsocial	n/a	32	5	n/a	n/a	n/a
267.576320	2	cue_nonsocial_high	n/a	32	9	n/a	n/a	n/a
276.877380	2	cue_social	n/a	16	-7	n/a	n/a	n/a
276.877380	2	cue_social_low	n/a	16	-11	n/a	n/a	n/a
283.734920	2	cue_social	n/a	16	-7	n/a	n/a	n/a
283.734920	2	cue_social_low	n/a	16	-11	n/a	n/a	n/a
292.926240	2	cue_nonsocial	n/a	32	5	n/a	n/a	n/a
292.926240	2	cue_nonsocial_high	n/a	32	9	n/a	n/a	n/a
300.678650	2	cue_social	n/a	32	9	n/a	n/a	n/a
300.678650	2	cue_social_high	n/a	32	5	n/a	n/a	n/a
308.296300	2	cue_social	n/a	16	-7	n/a	n/a	n/a
308.296300	2	cue_social_low	n/a	16	-11	n/a	n/a	n/a
317.599240	2	cue_social	n/a	16	-7	n/a	n/a	n/a
317.599240	2	cue_social_low	n/a	16	-11	n/a	n/a	n/a
324.309600	2	cue_nonsocial	n/a	32	5	n/a	n/a	n/a
324.309600	2	cue_nonsocial_high	n/a	32	9	n/a	n/a	n/a
331.958980	2	cue_nonsocial	n/a	32	5	n/a	n/a	n/a
331.958980	2	cue_nonsocial_high	n/a	32	9	n/a	n/a	n/a
338.868160	2	cue_social	n/a	32	9	n/a	n/a	n/a
338.868160	2	cue_social_high	n/a	32	5	n/a	n/a	n/a
348.141600	2	cue_social	n/a	32	9	n/a	n/a	n/a
348.141600	2	cue_social_high	n/a	32	5	n/a	n/a	n/a
354.892330	2	cue_nonsocial	n/a	16	-11	n/a	n/a	n/a
354.892330	2	cue_nonsocial_low	n/a	16	-7	n/a	n/a	n/a
361.725980	2	cue_nonsocial	n/a	32	5	n/a	n/a	n/a
361.725980	2	cue_nonsocial_high	n/a	32	9	n/a	n/a	n/a
370.976200	2	cue_nonsocial	n/a	16	-11	n/a	n/a	n/a
370.976200	2	cue_nonsocial_low	n/a	16	-7	n/a	n/a	n/a
6.516720	1.848977	dec_nonsocial_choice	1.848977	32.000000	n/a	2	-1.666667e-01	-1.666667e-01
6.516720	1.848977	dec_choice	1.848977	32.000000	n/a	2	-1.666667e-01	-1.666667e-01
6.516720	1.848977	dec_nonsocial_accept	1.848977	32.000000	n/a	2	-1.976562e-01	-1.976562e-01
6.516720	1.848977	dec_accept	1.848977	32.000000	n/a	2	-2.170139e-01	-2.170139e-01
6.516720	1.848977	dec_nonsocial_accept_low	1.848977	32.000000	n/a	2	-1.818182e-01	-1.818182e-01
13.348868	1.600076	dec_nonsocial_choice	1.600076	32.000000	n/a	8	2.083333e-02	2.083333e-02
13.348868	1.600076	dec_choice	1.600076	32.000000	n/a	8	2.083333e-02	2.083333e-02
13.348868	1.600076	dec_nonsocial_accept	1.600076	32.000000	n/a	8	-1.015625e-02	-1.015625e-02
13.348868	1.600076	dec_accept	1.600076	32.000000	n/a	8	-2.951389e-02	-2.951389e-02
13.348868	1.600076	dec_nonsocial_high	1.600076	32.000000	n/a	8	2.083333e-02	2.083333e-02
13.348868	1.600076	dec_nonsocial_accept_high	1.600076	32.000000	n/a	8	-2.951389e-02	-2.951389e-02
20.181904	1.466715	dec_social_choice	1.466715	32.000000	n/a	3	-1.354167e-01	-1.354167e-01
20.181904	1.466715	dec_choice	1.466715	32.000000	n/a	3	-1.354167e-01	-1.354167e-01
20.181904	1.466715	dec_social_accept	1.466715	32.000000	n/a	3	-1.664062e-01	-1.664062e-01
20.181904	1.466715	dec_accept	1.466715	32.000000	n/a	3	-1.505682e-01	-1.505682e-01
20.181904	1.466715	dec_social_accept_low	1.466715	32.000000	n/a	3	-1.354167e-01	-1.354167e-01
27.833300	1.115789	dec_social_choice	1.115789	16.000000	n/a	1	-1.666667e-01	-1.666667e-01
27.833300	1.115789	dec_choice	1.115789	16.000000	n/a	1	-1.666667e-01	-1.666667e-01
27.833300	1.115789	dec_social_accept	1.115789	16.000000	n/a	1	-1.976562e-01	-1.976562e-01
27.833300	1.115789	dec_accept	1.115789	16.000000	n/a	1	-1.818182e-01	-1.818182e-01
27.833300	1.115789	dec_social_accept_low	1.115789	16.000000	n/a	1	-1.666667e-01	-1.666667e-01
35.482998	1.049741	dec_social_choice	1.049741	16.000000	n/a	8	2.708333e-01	2.708333e-01
35.482998	1.049741	dec_choice	1.049741	16.000000	n/a	8	2.708333e-01	2.708333e-01
35.482998	1.049741	dec_social_accept	1.049741	16.000000	n/a	8	2.398438e-01	2.398438e-01
35.482998	1.049741	dec_accept	1.049741	16.000000	n/a	8	2.556818e-01	2.556818e-01
35.482998	1.049741	dec_social_accept_high	1.049741	16.000000	n/a	8	2.708333e-01	2.708333e-01
46.349270	1.082803	dec_social_choice	1.082803	16.000000	n/a	0	0	-2.291667e-01
46.349270	1.082803	dec_choice	1.082803	16.000000	n/a	0	0	-2.291667e-01
46.349270	1.082803	dec_social_reject	1.082803	16.000000	n/a	0	0	-1.171875e-02
46.349270	1.082803	dec_reject	1.082803	16.000000	n/a	0	0	0
46.349270	1.082803	dec_social_low	1.082803	16.000000	n/a	0	-2.291667e-01	-2.291667e-01
46.349270	1.082803	dec_social_reject_low	1.082803	16.000000	n/a	1	-1.666667e-01	-2.291667e-01
55.599285	1.032488	dec_social_choice	1.032488	16.000000	n/a	8	2.708333e-01	2.708333e-01
55.599285	1.032488	dec_choice	1.032488	16.000000	n/a	8	2.708333e-01	2.708333e-01
55.599285	1.032488	dec_social_accept	1.032488	16.000000	n/a	8	2.398438e-01	2.398438e-01
55.599285	1.032488	dec_accept	1.032488	16.000000	n/a	8	2.556818e-01	2.556818e-01
55.599285	1.032488	dec_social_high	1.032488	16.000000	n/a	8	2.708333e-01	2.708333e-01
55.599285	1.032488	dec_social_accept_high	1.032488	16.000000	n/a	8	2.708333e-01	2.708333e-01
68.081820	1.317088	dec_nonsocial_choice	1.317088	32.000000	n/a	2	-1.666667e-01	-1.666667e-01
68.081820	1.317088	dec_choice	1.317088	32.000000	n/a	2	-1.666667e-01	-1.666667e-01
68.081820	1.317088	dec_nonsocial_accept	1.317088	32.000000	n/a	2	-1.976562e-01	-1.976562e-01
68.081820	1.317088	dec_accept	1.317088	32.000000	n/a	2	-2.170139e-01	-2.170139e-01
68.081820	1.317088	dec_nonsocial_low	1.317088	32.000000	n/a	2	-1.666667e-01	-1.666667e-01
68.081820	1.317088	dec_nonsocial_accept_low	1.317088	32.000000	n/a	2	-2.170139e-01	-2.170139e-01
75.715700	1.116065	dec_nonsocial_choice	1.116065	16.000000	n/a	4	2.083333e-02	2.083333e-02
75.715700	1.116065	dec_choice	1.116065	16.000000	n/a	4	2.083333e-02	2.083333e-02
75.715700	1.116065	dec_nonsocial_accept	1.116065	16.000000	n/a	4	-1.015625e-02	-1.015625e-02
75.715700	1.116065	dec_accept	1.116065	16.000000	n/a	4	-2.951389e-02	-2.951389e-02
75.715700	1.116065	dec_nonsocial_high	1.116065	16.000000	n/a	4	2.083333e-02	2.083333e-02
75.715700	1.116065	dec_nonsocial_accept_high	1.116065	16.000000	n/a	4	-2.951389e-02	-2.951389e-02
82.548870	1.249741	dec_nonsocial_choice	1.249741	16.000000	n/a	8	2.708333e-01	2.708333e-01
82.548870	1.249741	dec_choice	1.249741	16.000000	n/a	8	2.708333e-01	2.708333e-01
82.548870	1.249741	dec_nonsocial_accept	1.249741	16.000000	n/a	8	2.398438e-01	2.398438e-01
82.548870	1.249741	dec_accept	1.249741	16.000000	n/a	8	2.204861e-01	2.204861e-01
82.548870	1.249741	dec_nonsocial_accept_high	1.249741	16.000000	n/a	8	2.556818e-01	2.556818e-01
93.415900	1.299644	dec_nonsocial_choice	1.299644	32.000000	n/a	8	2.083333e-02	2.083333e-02
93.415900	1.299644	dec_choice	1.299644	32.000000	n/a	8	2.083333e-02	2.083333e-02
93.415900	1.299644	dec_nonsocial_accept	1.299644	32.000000	n/a	8	-1.015625e-02	-1.015625e-02
93.415900	1.299644	dec_accept	1.299644	32.000000	n/a	8	-2.951389e-02	-2.951389e-02
93.415900	1.299644	dec_nonsocial_high	1.299644	32.000000	n/a	8	2.083333e-02	2.083333e-02
93.415900	1.299644	dec_nonsocial_accept_high	1.299644	32.000000	n/a	8	-2.951389e-02	-2.951389e-02
101.065850	0.965732	dec_social_choice	0.965732	16.000000	n/a	4	2.083333e-02	2.083333e-02
101.065850	0.965732	dec_choice	0.965732	16.000000	n/a	4	2.083333e-02	2.083333e-02
101.065850	0.965732	dec_social_accept	0.965732	16.000000	n/a	4	-1.015625e-02	-1.015625e-02
101.065850	0.965732	dec_accept	0.965732	16.000000	n/a	4	5.681818e-03	5.681818e-03
101.065850	0.965732	dec_social_high	0.965732	16.000000	n/a	4	2.083333e-02	2.083333e-02
101.065850	0.965732	dec_social_accept_high	0.965732	16.000000	n/a	4	2.083333e-02	2.083333e-02
107.897820	1.217061	dec_nonsocial_choice	1.217061	32.000000	n/a	8	2.083333e-02	2.083333e-02
107.897820	1.217061	dec_choice	1.217061	32.000000	n/a	8	2.083333e-02	2.083333e-02
107.897820	1.217061	dec_nonsocial_accept	1.217061	32.000000	n/a	8	-1.015625e-02	-1.015625e-02
107.897820	1.217061	dec_accept	1.217061	32.000000	n/a	8	-2.951389e-02	-2.951389e-02
107.897820	1.217061	dec_nonsocial_accept_high	1.217061	32.000000	n/a	8	5.681818e-03	5.681818e-03
114.731224	1.750928	dec_social_choice	1.750928	16.000000	n/a	2	-1.041667e-01	-1.041667e-01
114.731224	1.750928	dec_choice	1.750928	16.000000	n/a	2	-1.041667e-01	-1.041667e-01
114.731224	1.750928	dec_social_accept	1.750928	16.000000	n/a	2	-1.351562e-01	-1.351562e-01
114.731224	1.750928	dec_accept	1.750928	16.000000	n/a	2	-1.193182e-01	-1.193182e-01
114.731224	1.750928	dec_social_accept_low	1.750928	16.000000	n/a	2	-1.041667e-01	-1.041667e-01
121.565790	1.416106	dec_social_choice	1.416106	16.000000	n/a	4	2.083333e-02	2.083333e-02
121.565790	1.416106	dec_choice	1.416106	16.000000	n/a	4	2.083333e-02	2.083333e-02
121.565790	1.416106	dec_social_accept	1.416106	16.000000	n/a	4	-1.015625e-02	-1.015625e-02
121.565790	1.416106	dec_accept	1.416106	16.000000	n/a	4	5.681818e-03	5.681818e-03
121.565790	1.416106	dec_social_accept_high	1.416106	16.000000	n/a	4	2.083333e-02	2.083333e-02
129.215330	1.133402	dec_social_choice	1.133402	32.000000	n/a	3	-1.354167e-01	-1.354167e-01
129.215330	1.133402	dec_choice	1.133402	32.000000	n/a	3	-1.354167e-01	-1.354167e-01
129.215330	1.133402	dec_social_accept	1.133402	32.000000	n/a	3	-1.664062e-01	-1.664062e-01
129.215330	1.133402	dec_accept	1.133402	32.000000	n/a	3	-1.505682e-01	-1.505682e-01
129.215330	1.133402	dec_social_low	1.133402	32.000000	n/a	3	-1.354167e-01	-1.354167e-01
129.215330	1.133402	dec_social_accept_low	1.133402	32.000000	n/a	3	-1.354167e-01	-1.354167e-01
136.048950	1.033256	dec_nonsocial_choice	1.033256	32.000000	n/a	2	-1.666667e-01	-1.666667e-01
136.048950	1.033256	dec_choice	1.033256	32.000000	n/a	2	-1.666667e-01	-1.666667e-01
136.048950	1.033256	dec_nonsocial_accept	1.033256	32.000000	n/a	2	-1.976562e-01	-1.976562e-01
136.048950	1.033256	dec_accept	1.033256	32.000000	n/a	2	-2.170139e-01	-2.170139e-01
136.048950	1.033256	dec_nonsocial_accept_low	1.033256	32.000000	n/a	2	-1.818182e-01	-1.818182e-01
142.881910	1.034314	dec_nonsocial_choice	1.034314	16.000000	n/a	2	-1.041667e-01	-1.041667e-01
142.881910	1.034314	dec_choice	1.034314	16.000000	n/a	2	-1.041667e-01	-1.041667e-01
142.881910	1.034314	dec_nonsocial_accept	1.034314	16.000000	n/a	2	-1.351562e-01	-1.351562e-01
142.881910	1.034314	dec_accept	1.034314	16.000000	n/a	2	-1.545139e-01	-1.545139e-01
142.881910	1.034314	dec_nonsocial_accept_low	1.034314	16.000000	n/a	2	-1.193182e-01	-1.193182e-01
149.715380	1.183398	dec_nonsocial_choice	1.183398	32.000000	n/a	16	2.708333e-01	2.708333e-01
149.715380	1.183398	dec_choice	1.183398	32.000000	n/a	16	2.708333e-01	2.708333e-01
149.715380	1.183398	dec_nonsocial_accept	1.183398	32.000000	n/a	16	2.398438e-01	2.398438e-01
149.715380	1.183398	dec_accept	1.183398	32.000000	n/a	16	2.204861e-01	2.204861e-01
149.715380	1.183398	dec_nonsocial_accept_high	1.183398	32.000000	n/a	16	2.556818e-01	2.556818e-01
156.549650	1.149067	dec_social_choice	1.149067	32.000000	n/a	2	-1.666667e-01	-1.666667e-01
156.549650	1.149067	dec_choice	1.149067	32.000000	n/a	2	-1.666667e-01	-1.666667e-01
156.549650	1.149067	dec_social_accept	1.149067	32.000000	n/a	2	-1.976562e-01	-1.976562e-01
156.549650	1.149067	dec_accept	1.149067	32.000000	n/a	2	-1.818182e-01	-1.818182e-01
156.549650	1.149067	dec_social_low	1.149067	32.000000	n/a	2	-1.666667e-01	-1.666667e-01
156.549650	1.149067	dec_social_accept_low	1.149067	32.000000	n/a	2	-1.666667e-01	-1.666667e-01
163.382230	1.283352	dec_social_choice	1.283352	32.000000	n/a	16	2.708333e-01	2.708333e-01
163.382230	1.283352	dec_choice	1.283352	32.000000	n/a	16	2.708333e-01	2.708333e-01
163.382230	1.283352	dec_social_accept	1.283352	32.000000	n/a	16	2.398438e-01	2.398438e-01
163.382230	1.283352	dec_accept	1.283352	32.000000	n/a	16	2.556818e-01	2.556818e-01
163.382230	1.283352	dec_social_accept_high	1.283352	32.000000	n/a	16	2.708333e-01	2.708333e-01
170.214870	1.017236	dec_social_choice	1.017236	16.000000	n/a	4	2.083333e-02	2.083333e-02
170.214870	1.017236	dec_choice	1.017236	16.000000	n/a	4	2.083333e-02	2.083333e-02
170.214870	1.017236	dec_social_accept	1.017236	16.000000	n/a	4	-1.015625e-02	-1.015625e-02
170.214870	1.017236	dec_accept	1.017236	16.000000	n/a	4	5.681818e-03	5.681818e-03
170.214870	1.017236	dec_social_accept_high	1.017236	16.000000	n/a	4	2.083333e-02	2.083333e-02
177.864840	1.216576	dec_nonsocial_choice	1.216576	32.000000	n/a	8	2.083333e-02	2.083333e-02
177.864840	1.216576	dec_choice	1.216576	32.000000	n/a	8	2.083333e-02	2.083333e-02
177.864840	1.216576	dec_nonsocial_accept	1.216576	32.000000	n/a	8	-1.015625e-02	-1.015625e-02
177.864840	1.216576	dec_accept	1.216576	32.000000	n/a	8	-2.951389e-02	-2.951389e-02
177.864840	1.216576	dec_nonsocial_high	1.216576	32.000000	n/a	8	2.083333e-02	2.083333e-02
177.864840	1.216576	dec_nonsocial_accept_high	1.216576	32.000000	n/a	8	-2.951389e-02	-2.951389e-02
184.699020	1.116033	dec_social_choice	1.116033	32.000000	n/a	16	2.708333e-01	2.708333e-01
184.699020	1.116033	dec_choice	1.116033	32.000000	n/a	16	2.708333e-01	2.708333e-01
184.699020	1.116033	dec_social_accept	1.116033	32.000000	n/a	16	2.398438e-01	2.398438e-01
184.699020	1.116033	dec_accept	1.116033	32.000000	n/a	16	2.556818e-01	2.556818e-01
184.699020	1.116033	dec_social_accept_high	1.116033	32.000000	n/a	16	2.708333e-01	2.708333e-01
191.532760	1.049225	dec_nonsocial_choice	1.049225	16.000000	n/a	2	-1.041667e-01	-1.041667e-01
191.532760	1.049225	dec_choice	1.049225	16.000000	n/a	2	-1.041667e-01	-1.041667e-01
191.532760	1.049225	dec_nonsocial_accept	1.049225	16.000000	n/a	2	-1.351562e-01	-1.351562e-01
191.532760	1.049225	dec_accept	1.049225	16.000000	n/a	2	-1.545139e-01	-1.545139e-01
191.532760	1.049225	dec_nonsocial_low	1.049225	16.000000	n/a	2	-1.041667e-01	-1.041667e-01
191.532760	1.049225	dec_nonsocial_accept_low	1.049225	16.000000	n/a	2	-1.545139e-01	-1.545139e-01
199.181880	1.049926	dec_social_choice	1.049926	32.000000	n/a	16	2.708333e-01	2.708333e-01
199.181880	1.049926	dec_choice	1.049926	32.000000	n/a	16	2.708333e-01	2.708333e-01
199.181880	1.049926	dec_social_accept	1.049926	32.000000	n/a	16	2.398438e-01	2.398438e-01
199.181880	1.049926	dec_accept	1.049926	32.000000	n/a	16	2.556818e-01	2.556818e-01
199.181880	1.049926	dec_social_accept_high	1.049926	32.000000	n/a	16	2.708333e-01	2.708333e-01
206.015010	1.166284	dec_nonsocial_choice	1.166284	32.000000	n/a	8	2.083333e-02	2.083333e-02
206.015010	1.166284	dec_choice	1.166284	32.000000	n/a	8	2.083333e-02	2.083333e-02
206.015010	1.166284	dec_nonsocial_accept	1.166284	32.000000	n/a	8	-1.015625e-02	-1.015625e-02
206.015010	1.166284	dec_accept	1.166284	32.000000	n/a	8	-2.951389e-02	-2.951389e-02
206.015010	1.166284	dec_nonsocial_accept_high	1.166284	32.000000	n/a	8	5.681818e-03	5.681818e-03
215.282820	1.165266	dec_nonsocial_choice	1.165266	16.000000	n/a	0	0	-2.291667e-01
215.282820	1.165266	dec_choice	1.165266	16.000000	n/a	0	0	-2.291667e-01
215.282820	1.165266	dec_nonsocial_reject	1.165266	16.000000	n/a	0	0	-1.171875e-02
215.282820	1.165266	dec_reject	1.165266	16.000000	n/a	0	0	-1.562500e-02
215.282820	1.165266	dec_nonsocial_reject_low	1.165266	16.000000	n/a	1	0	-6.250000e-02
222.115590	1.915551	dec_nonsocial_choice	1.915551	32.000000	n/a	0	0	-2.291667e-01
222.115590	1.915551	dec_choice	1.915551	32.000000	n/a	0	0	-2.291667e-01
222.115590	1.915551	dec_nonsocial_reject	1.915551	32.000000	n/a	0	0	1.953125e-02
222.115590	1.915551	dec_reject	1.915551	32.000000	n/a	0	0	1.562500e-02
222.115590	1.915551	dec_nonsocial_low	1.915551	32.000000	n/a	0	-2.291667e-01	-2.291667e-01
222.115590	1.915551	dec_nonsocial_reject_low	1.915551	32.000000	n/a	3	1.562500e-02	-7.812500e-02
228.948030	1.633852	dec_nonsocial_choice	1.633852	32.000000	n/a	0	0	-2.291667e-01
228.948030	1.633852	dec_choice	1.633852	32.000000	n/a	0	0	-2.291667e-01
228.948030	1.633852	dec_nonsocial_reject	1.633852	32.000000	n/a	0	0	1.953125e-02
228.948030	1.633852	dec_reject	1.633852	32.000000	n/a	0	0	1.562500e-02
228.948030	1.633852	dec_nonsocial_reject_low	1.633852	32.000000	n/a	3	3.125000e-02	-6.250000e-02
239.815860	0.999783	dec_social_choice	0.999783	32.000000	n/a	2	-1.666667e-01	-1.666667e-01
239.815860	0.999783	dec_choice	0.999783	32.000000	n/a	2	-1.666667e-01	-1.666667e-01
239.815860	0.999783	dec_social_accept	0.999783	32.000000	n/a	2	-1.976562e-01	-1.976562e-01
239.815860	0.999783	dec_accept	0.999783	32.000000	n/a	2	-1.818182e-01	-1.818182e-01
239.815860	0.999783	dec_social_low	0.999783	32.000000	n/a	2	-1.666667e-01	-1.666667e-01
239.815860	0.999783	dec_social_accept_low	0.999783	32.000000	n/a	2	-1.666667e-01	-1.666667e-01
246.648640	1.282671	dec_social_choice	1.282671	32.000000	n/a	16	2.708333e-01	2.708333e-01
246.648640	1.282671	dec_choice	1.282671	32.000000	n/a	16	2.708333e-01	2.708333e-01
246.648640	1.282671	dec_social_accept	1.282671	32.000000	n/a	16	2.398438e-01	2.398438e-01
246.648640	1.282671	dec_accept	1.282671	32.000000	n/a	16	2.556818e-01	2.556818e-01
246.648640	1.282671	dec_social_accept_high	1.282671	32.000000	n/a	16	2.708333e-01	2.708333e-01
254.297910	1.000694	dec_nonsocial_choice	1.000694	32.000000	n/a	16	2.708333e-01	2.708333e-01
254.297910	1.000694	dec_choice	1.000694	32.000000	n/a	16	2.708333e-01	2.708333e-01
254.297910	1.000694	dec_nonsocial_accept	1.000694	32.000000	n/a	16	2.398438e-01	2.398438e-01
254.297910	1.000694	dec_accept	1.000694	32.000000	n/a	16	2.204861e-01	2.204861e-01
254.297910	1.000694	dec_nonsocial_accept_high	1.000694	32.000000	n/a	16	2.556818e-01	2.556818e-01
261.931820	1.399892	dec_social_choice	1.399892	16.000000	n/a	2	-1.041667e-01	-1.041667e-01
261.931820	1.399892	dec_choice	1.399892	16.000000	n/a	2	-1.041667e-01	-1.041667e-01
261.931820	1.399892	dec_social_accept	1.399892	16.000000	n/a	2	-1.351562e-01	-1.351562e-01
261.931820	1.399892	dec_accept	1.399892	16.000000	n/a	2	-1.193182e-01	-1.193182e-01
261.931820	1.399892	dec_social_low	1.399892	16.000000	n/a	2	-1.041667e-01	-1.041667e-01
261.931820	1.399892	dec_social_accept_low	1.399892	16.000000	n/a	2	-1.041667e-01	-1.041667e-01
269.581600	0.949939	dec_nonsocial_choice	0.949939	32.000000	n/a	0	0	-2.291667e-01
269.581600	0.949939	dec_choice	0.949939	32.000000	n/a	0	0	-2.291667e-01
269.581600	0.949939	dec_nonsocial_reject	0.949939	32.000000	n/a	0	0	-1.171875e-02
269.581600	0.949939	dec_reject	0.949939	32.000000	n/a	0	0	-1.562500e-02
269.581600	0.949939	dec_nonsocial_low	0.949939	32.000000	n/a	0	-2.291667e-01	-2.291667e-01
269.581600	0.949939	dec_nonsocial_reject_low	0.949939	32.000000	n/a	2	-1.562500e-02	-7.812500e-02
278.831630	1.000181	dec_social_choice	1.000181	16.000000	n/a	0	0	-2.291667e-01
278.831630	1.000181	dec_choice	1.000181	16.000000	n/a	0	0	-2.291667e-01
278.831630	1.000181	dec_social_reject	1.000181	16.000000	n/a	0	0	-1.171875e-02
278.831630	1.000181	dec_reject	1.000181	16.000000	n/a	0	0	0
278.831630	1.000181	dec_social_reject_low	1.000181	16.000000	n/a	1	-1.666667e-01	-2.291667e-01
285.665920	1.031747	dec_social_choice	1.031747	16.000000	n/a	4	2.083333e-02	2.083333e-02
285.665920	1.031747	dec_choice	1.031747	16.000000	n/a	4	2.083333e-02	2.083333e-02
285.665920	1.031747	dec_social_accept	1.031747	16.000000	n/a	4	-1.015625e-02	-1.015625e-02
285.665920	1.031747	dec_accept	1.031747	16.000000	n/a	4	5.681818e-03	5.681818e-03
285.665920	1.031747	dec_social_high	1.031747	16.000000	n/a	4	2.083333e-02	2.083333e-02
285.665920	1.031747	dec_social_accept_high	1.031747	16.000000	n/a	4	2.083333e-02	2.083333e-02
294.931520	1.216260	dec_nonsocial_choice	1.216260	32.000000	n/a	0	0	-2.291667e-01
294.931520	1.216260	dec_choice	1.216260	32.000000	n/a	0	0	-2.291667e-01
294.931520	1.216260	dec_nonsocial_reject	1.216260	32.000000	n/a	0	0	-1.171875e-02
294.931520	1.216260	dec_reject	1.216260	32.000000	n/a	0	0	-1.562500e-02
294.931520	1.216260	dec_nonsocial_low	1.216260	32.000000	n/a	0	-2.291667e-01	-2.291667e-01
294.931520	1.216260	dec_nonsocial_reject_low	1.216260	32.000000	n/a	2	-1.562500e-02	-7.812500e-02
302.580900	1.434242	dec_social_choice	1.434242	32.000000	n/a	3	-1.354167e-01	-1.354167e-01
302.580900	1.434242	dec_choice	1.434242	32.000000	n/a	3	-1.354167e-01	-1.354167e-01
302.580900	1.434242	dec_social_accept	1.434242	32.000000	n/a	3	-1.664062e-01	-1.664062e-01
302.580900	1.434242	dec_accept	1.434242	32.000000	n/a	3	-1.505682e-01	-1.505682e-01
302.580900	1.434242	dec_social_low	1.434242	32.000000	n/a	3	-1.354167e-01	-1.354167e-01
302.580900	1.434242	dec_social_accept_low	1.434242	32.000000	n/a	3	-1.354167e-01	-1.354167e-01
310.231750	0.966928	dec_social_choice	0.966928	16.000000	n/a	4	2.083333e-02	2.083333e-02
310.231750	0.966928	dec_choice	0.966928	16.000000	n/a	4	2.083333e-02	2.083333e-02
310.231750	0.966928	dec_social_accept	0.966928	16.000000	n/a	4	-1.015625e-02	-1.015625e-02
310.231750	0.966928	dec_accept	0.966928	16.000000	n/a	4	5.681818e-03	5.681818e-03
310.231750	0.966928	dec_social_high	0.966928	16.000000	n/a	4	2.083333e-02	2.083333e-02
310.231750	0.966928	dec_social_accept_high	0.966928	16.000000	n/a	4	2.083333e-02	2.083333e-02
319.480740	1.950883	dec_social_choice	1.950883	16.000000	n/a	1	-1.666667e-01	-1.666667e-01
319.480740	1.950883	dec_choice	1.950883	16.000000	n/a	1	-1.666667e-01	-1.666667e-01
319.480740	1.950883	dec_social_accept	1.950883	16.000000	n/a	1	-1.976562e-01	-1.976562e-01
319.480740	1.950883	dec_accept	1.950883	16.000000	n/a	1	-1.818182e-01	-1.818182e-01
319.480740	1.950883	dec_social_low	1.950883	16.000000	n/a	1	-1.666667e-01	-1.666667e-01
319.480740	1.950883	dec_social_accept_low	1.950883	16.000000	n/a	1	-1.666667e-01	-1.666667e-01
326.314940	1.216165	dec_nonsocial_choice	1.216165	32.000000	n/a	3	-1.354167e-01	-1.354167e-01
326.314940	1.216165	dec_choice	1.216165	32.000000	n/a	3	-1.354167e-01	-1.354167e-01
326.314940	1.216165	dec_nonsocial_accept	1.216165	32.000000	n/a	3	-1.664062e-01	-1.664062e-01
326.314940	1.216165	dec_accept	1.216165	32.000000	n/a	3	-1.857639e-01	-1.857639e-01
326.314940	1.216165	dec_nonsocial_accept_low	1.216165	32.000000	n/a	3	-1.505682e-01	-1.505682e-01
333.965820	1.315293	dec_nonsocial_choice	1.315293	32.000000	n/a	16	2.708333e-01	2.708333e-01
333.965820	1.315293	dec_choice	1.315293	32.000000	n/a	16	2.708333e-01	2.708333e-01
333.965820	1.315293	dec_nonsocial_accept	1.315293	32.000000	n/a	16	2.398438e-01	2.398438e-01
333.965820	1.315293	dec_accept	1.315293	32.000000	n/a	16	2.204861e-01	2.204861e-01
333.965820	1.315293	dec_nonsocial_accept_high	1.315293	32.000000	n/a	16	2.556818e-01	2.556818e-01
340.798680	1.049060	dec_social_choice	1.049060	32.000000	n/a	8	2.083333e-02	2.083333e-02
340.798680	1.049060	dec_choice	1.049060	32.000000	n/a	8	2.083333e-02	2.083333e-02
340.798680	1.049060	dec_social_accept	1.049060	32.000000	n/a	8	-1.015625e-02	-1.015625e-02
340.798680	1.049060	dec_accept	1.049060	32.000000	n/a	8	5.681818e-03	5.681818e-03
340.798680	1.049060	dec_social_high	1.049060	32.000000	n/a	8	2.083333e-02	2.083333e-02
340.798680	1.049060	dec_social_accept_high	1.049060	32.000000	n/a	8	2.083333e-02	2.083333e-02
350.064450	1.233124	dec_social_choice	1.233124	32.000000	n/a	3	-1.354167e-01	-1.354167e-01
350.064450	1.233124	dec_choice	1.233124	32.000000	n/a	3	-1.354167e-01	-1.354167e-01
350.064450	1.233124	dec_social_accept	1.233124	32.000000	n/a	3	-1.664062e-01	-1.664062e-01
350.064450	1.233124	dec_accept	1.233124	32.000000	n/a	3	-1.505682e-01	-1.505682e-01
350.064450	1.233124	dec_social_accept_low	1.233124	32.000000	n/a	3	-1.354167e-01	-1.354167e-01
356.898770	1.582270	dec_nonsocial_choice	1.582270	16.000000	n/a	8	2.708333e-01	2.708333e-01
356.898770	1.582270	dec_choice	1.582270	16.000000	n/a	8	2.708333e-01	2.708333e-01
356.898770	1.582270	dec_nonsocial_accept	1.582270	16.000000	n/a	8	2.398438e-01	2.398438e-01
356.898770	1.582270	dec_accept	1.582270	16.000000	n/a	8	2.204861e-01	2.204861e-01
356.898770	1.582270	dec_nonsocial_accept_high	1.582270	16.000000	n/a	8	2.556818e-01	2.556818e-01
363.732270	1.099161	dec_nonsocial_choice	1.099161	32.000000	n/a	0	0	-2.291667e-01
363.732270	1.099161	dec_choice	1.099161	32.000000	n/a	0	0	-2.291667e-01
363.732270	1.099161	dec_nonsocial_reject	1.099161	32.000000	n/a	0	0	1.953125e-02
363.732270	1.099161	dec_reject	1.099161	32.000000	n/a	0	0	1.562500e-02
363.732270	1.099161	dec_nonsocial_low	1.099161	32.000000	n/a	0	-2.291667e-01	-2.291667e-01
363.732270	1.099161	dec_nonsocial_reject_low	1.099161	32.000000	n/a	3	1.562500e-02	-7.812500e-02
372.981800	1.233176	dec_nonsocial_choice	1.233176	16.000000	n/a	8	2.708333e-01	2.708333e-01
372.981800	1.233176	dec_choice	1.233176	16.000000	n/a	8	2.708333e-01	2.708333e-01
372.981800	1.233176	dec_nonsocial_accept	1.233176	16.000000	n/a	8	2.398438e-01	2.398438e-01
372.981800	1.233176	dec_accept	1.233176	16.000000	n/a	8	2.204861e-01	2.204861e-01
372.981800	1.233176	dec_nonsocial_high	1.233176	16.000000	n/a	8	2.708333e-01	2.708333e-01
372.981800	1.233176	dec_nonsocial_accept_high	1.233176	16.000000	n/a	8	2.204861e-01	2.204861e-01
