onset	duration	trial_type	response_time	Endowment	Endowment_pmod	Decision	Decision_pmod	Offer_pmod
4.609354	2	cue_social	n/a	16	-9	n/a	n/a	n/a
4.609354	2	cue_social_low	n/a	16	-9	n/a	n/a	n/a
11.457968	2	cue_social	n/a	16	-9	n/a	n/a	n/a
11.457968	2	cue_social_low	n/a	16	-9	n/a	n/a	n/a
19.002071	2	cue_nonsocial	n/a	32	7	n/a	n/a	n/a
19.002071	2	cue_nonsocial_high	n/a	32	7	n/a	n/a	n/a
25.938858	2	cue_social	n/a	32	7	n/a	n/a	n/a
25.938858	2	cue_social_high	n/a	32	7	n/a	n/a	n/a
32.668430	2	cue_nonsocial	n/a	16	-9	n/a	n/a	n/a
32.668430	2	cue_nonsocial_low	n/a	16	-9	n/a	n/a	n/a
39.502040	2	cue_nonsocial	n/a	16	-9	n/a	n/a	n/a
39.502040	2	cue_nonsocial_low	n/a	16	-9	n/a	n/a	n/a
46.334866	2	cue_nonsocial	n/a	32	7	n/a	n/a	n/a
46.334866	2	cue_nonsocial_high	n/a	32	7	n/a	n/a	n/a
53.985233	2	cue_nonsocial	n/a	32	7	n/a	n/a	n/a
53.985233	2	cue_nonsocial_high	n/a	32	7	n/a	n/a	n/a
60.938000	2	cue_social	n/a	16	-9	n/a	n/a	n/a
60.938000	2	cue_social_low	n/a	16	-9	n/a	n/a	n/a
68.468575	2	cue_nonsocial	n/a	32	7	n/a	n/a	n/a
68.468575	2	cue_nonsocial_high	n/a	32	7	n/a	n/a	n/a
77.734610	2	cue_nonsocial	n/a	32	7	n/a	n/a	n/a
77.734610	2	cue_nonsocial_high	n/a	32	7	n/a	n/a	n/a
85.474630	2	cue_social	n/a	32	7	n/a	n/a	n/a
85.474630	2	cue_social_high	n/a	32	7	n/a	n/a	n/a
92.343070	2	cue_social	n/a	32	7	n/a	n/a	n/a
92.343070	2	cue_social_high	n/a	32	7	n/a	n/a	n/a
99.172120	2	cue_social	n/a	16	-9	n/a	n/a	n/a
99.172120	2	cue_social_low	n/a	16	-9	n/a	n/a	n/a
106.775080	2	cue_social	n/a	16	-9	n/a	n/a	n/a
106.775080	2	cue_social_low	n/a	16	-9	n/a	n/a	n/a
114.449394	2	cue_social	n/a	16	-9	n/a	n/a	n/a
114.449394	2	cue_social_low	n/a	16	-9	n/a	n/a	n/a
121.309850	2	cue_social	n/a	16	-9	n/a	n/a	n/a
121.309850	2	cue_social_low	n/a	16	-9	n/a	n/a	n/a
128.017780	2	cue_nonsocial	n/a	16	-9	n/a	n/a	n/a
128.017780	2	cue_nonsocial_low	n/a	16	-9	n/a	n/a	n/a
138.968690	2	cue_social	n/a	16	-9	n/a	n/a	n/a
138.968690	2	cue_social_low	n/a	16	-9	n/a	n/a	n/a
148.251220	2	cue_social	n/a	32	7	n/a	n/a	n/a
148.251220	2	cue_social_high	n/a	32	7	n/a	n/a	n/a
157.415150	2	cue_social	n/a	32	7	n/a	n/a	n/a
157.415150	2	cue_social_high	n/a	32	7	n/a	n/a	n/a
166.634700	2	cue_nonsocial	n/a	32	7	n/a	n/a	n/a
166.634700	2	cue_nonsocial_high	n/a	32	7	n/a	n/a	n/a
173.467860	2	cue_nonsocial	n/a	32	7	n/a	n/a	n/a
173.467860	2	cue_nonsocial_high	n/a	32	7	n/a	n/a	n/a
180.389040	2	cue_social	n/a	32	7	n/a	n/a	n/a
180.389040	2	cue_social_high	n/a	32	7	n/a	n/a	n/a
191.185200	2	cue_nonsocial	n/a	16	-9	n/a	n/a	n/a
191.185200	2	cue_nonsocial_low	n/a	16	-9	n/a	n/a	n/a
198.018480	2	cue_nonsocial	n/a	16	-9	n/a	n/a	n/a
198.018480	2	cue_nonsocial_low	n/a	16	-9	n/a	n/a	n/a
205.742740	2	cue_social	n/a	16	-9	n/a	n/a	n/a
205.742740	2	cue_social_low	n/a	16	-9	n/a	n/a	n/a
213.318190	2	cue_nonsocial	n/a	32	7	n/a	n/a	n/a
213.318190	2	cue_nonsocial_high	n/a	32	7	n/a	n/a	n/a
221.035370	2	cue_social	n/a	32	7	n/a	n/a	n/a
221.035370	2	cue_social_high	n/a	32	7	n/a	n/a	n/a
227.802600	2	cue_nonsocial	n/a	32	7	n/a	n/a	n/a
227.802600	2	cue_nonsocial_high	n/a	32	7	n/a	n/a	n/a
234.635060	2	cue_nonsocial	n/a	16	-9	n/a	n/a	n/a
234.635060	2	cue_nonsocial_low	n/a	16	-9	n/a	n/a	n/a
245.501300	2	cue_nonsocial	n/a	32	7	n/a	n/a	n/a
245.501300	2	cue_nonsocial_high	n/a	32	7	n/a	n/a	n/a
253.230510	2	cue_social	n/a	32	7	n/a	n/a	n/a
253.230510	2	cue_social_high	n/a	32	7	n/a	n/a	n/a
259.984770	2	cue_nonsocial	n/a	16	-9	n/a	n/a	n/a
259.984770	2	cue_nonsocial_low	n/a	16	-9	n/a	n/a	n/a
266.817500	2	cue_nonsocial	n/a	16	-9	n/a	n/a	n/a
266.817500	2	cue_nonsocial_low	n/a	16	-9	n/a	n/a	n/a
273.651060	2	cue_nonsocial	n/a	32	7	n/a	n/a	n/a
273.651060	2	cue_nonsocial_high	n/a	32	7	n/a	n/a	n/a
281.297450	2	cue_social	n/a	32	7	n/a	n/a	n/a
281.297450	2	cue_social_high	n/a	32	7	n/a	n/a	n/a
288.227050	2	cue_social	n/a	32	7	n/a	n/a	n/a
288.227050	2	cue_social_high	n/a	32	7	n/a	n/a	n/a
295.048400	2	cue_social	n/a	16	-9	n/a	n/a	n/a
295.048400	2	cue_social_low	n/a	16	-9	n/a	n/a	n/a
302.617860	2	cue_nonsocial	n/a	32	7	n/a	n/a	n/a
302.617860	2	cue_nonsocial_high	n/a	32	7	n/a	n/a	n/a
315.172400	2	cue_social	n/a	32	7	n/a	n/a	n/a
315.172400	2	cue_social_high	n/a	32	7	n/a	n/a	n/a
322.015470	2	cue_social	n/a	32	7	n/a	n/a	n/a
322.015470	2	cue_social_high	n/a	32	7	n/a	n/a	n/a
328.769530	2	cue_nonsocial	n/a	16	-9	n/a	n/a	n/a
328.769530	2	cue_nonsocial_low	n/a	16	-9	n/a	n/a	n/a
336.417600	2	cue_nonsocial	n/a	16	-9	n/a	n/a	n/a
336.417600	2	cue_nonsocial_low	n/a	16	-9	n/a	n/a	n/a
343.251340	2	cue_nonsocial	n/a	32	7	n/a	n/a	n/a
343.251340	2	cue_nonsocial_high	n/a	32	7	n/a	n/a	n/a
352.517240	2	cue_nonsocial	n/a	32	7	n/a	n/a	n/a
352.517240	2	cue_nonsocial_high	n/a	32	7	n/a	n/a	n/a
361.866850	2	cue_social	n/a	32	7	n/a	n/a	n/a
361.866850	2	cue_social_high	n/a	32	7	n/a	n/a	n/a
371.116820	2	cue_social	n/a	32	7	n/a	n/a	n/a
371.116820	2	cue_social_high	n/a	32	7	n/a	n/a	n/a
6.524944	2.082378	dec_social_choice	2.082378	16.000000	n/a	4	1.888021e-02	1.888021e-02
6.524944	2.082378	dec_choice	2.082378	16.000000	n/a	4	1.822917e-02	1.822917e-02
6.524944	2.082378	dec_social_accept	2.082378	16.000000	n/a	4	1.888021e-02	1.888021e-02
6.524944	2.082378	dec_accept	2.082378	16.000000	n/a	4	1.822917e-02	1.822917e-02
6.524944	2.082378	dec_social_accept_high	2.082378	16.000000	n/a	4	1.822917e-02	1.822917e-02
13.358208	0.732377	dec_social_choice	0.732377	16.000000	n/a	1	-1.686198e-01	-1.686198e-01
13.358208	0.732377	dec_choice	0.732377	16.000000	n/a	1	-1.692708e-01	-1.692708e-01
13.358208	0.732377	dec_social_accept	0.732377	16.000000	n/a	1	-1.686198e-01	-1.686198e-01
13.358208	0.732377	dec_accept	0.732377	16.000000	n/a	1	-1.692708e-01	-1.692708e-01
13.358208	0.732377	dec_social_accept_low	0.732377	16.000000	n/a	1	-1.692708e-01	-1.692708e-01
21.007505	1.116072	dec_nonsocial_choice	1.116072	32.000000	n/a	8	1.888021e-02	1.888021e-02
21.007505	1.116072	dec_choice	1.116072	32.000000	n/a	8	1.953125e-02	1.953125e-02
21.007505	1.116072	dec_nonsocial_accept	1.116072	32.000000	n/a	8	1.888021e-02	1.888021e-02
21.007505	1.116072	dec_accept	1.116072	32.000000	n/a	8	1.953125e-02	1.953125e-02
21.007505	1.116072	dec_nonsocial_high	1.116072	32.000000	n/a	8	1.953125e-02	1.953125e-02
21.007505	1.116072	dec_nonsocial_accept_high	1.116072	32.000000	n/a	8	1.953125e-02	1.953125e-02
27.840086	0.883719	dec_social_choice	0.883719	32.000000	n/a	2	-1.686198e-01	-1.686198e-01
27.840086	0.883719	dec_choice	0.883719	32.000000	n/a	2	-1.692708e-01	-1.692708e-01
27.840086	0.883719	dec_social_accept	0.883719	32.000000	n/a	2	-1.686198e-01	-1.686198e-01
27.840086	0.883719	dec_accept	0.883719	32.000000	n/a	2	-1.692708e-01	-1.692708e-01
27.840086	0.883719	dec_social_low	0.883719	32.000000	n/a	2	-1.692708e-01	-1.692708e-01
27.840086	0.883719	dec_social_accept_low	0.883719	32.000000	n/a	2	-1.692708e-01	-1.692708e-01
34.674107	1.166030	dec_nonsocial_choice	1.166030	16.000000	n/a	2	-1.061198e-01	-1.061198e-01
34.674107	1.166030	dec_choice	1.166030	16.000000	n/a	2	-1.054688e-01	-1.054688e-01
34.674107	1.166030	dec_nonsocial_accept	1.166030	16.000000	n/a	2	-1.061198e-01	-1.061198e-01
34.674107	1.166030	dec_accept	1.166030	16.000000	n/a	2	-1.054688e-01	-1.054688e-01
34.674107	1.166030	dec_nonsocial_low	1.166030	16.000000	n/a	2	-1.054688e-01	-1.054688e-01
34.674107	1.166030	dec_nonsocial_accept_low	1.166030	16.000000	n/a	2	-1.054688e-01	-1.054688e-01
41.506985	1.183582	dec_nonsocial_choice	1.183582	16.000000	n/a	1	-1.686198e-01	-1.686198e-01
41.506985	1.183582	dec_choice	1.183582	16.000000	n/a	1	-1.679688e-01	-1.679688e-01
41.506985	1.183582	dec_nonsocial_accept	1.183582	16.000000	n/a	1	-1.686198e-01	-1.686198e-01
41.506985	1.183582	dec_accept	1.183582	16.000000	n/a	1	-1.679688e-01	-1.679688e-01
41.506985	1.183582	dec_nonsocial_accept_low	1.183582	16.000000	n/a	1	-1.692708e-01	-1.692708e-01
48.341000	1.432374	dec_nonsocial_choice	1.432374	32.000000	n/a	3	-1.373698e-01	-1.373698e-01
48.341000	1.432374	dec_choice	1.432374	32.000000	n/a	3	-1.367188e-01	-1.367188e-01
48.341000	1.432374	dec_nonsocial_accept	1.432374	32.000000	n/a	3	-1.373698e-01	-1.373698e-01
48.341000	1.432374	dec_accept	1.432374	32.000000	n/a	3	-1.367188e-01	-1.367188e-01
48.341000	1.432374	dec_nonsocial_low	1.432374	32.000000	n/a	3	-1.367188e-01	-1.367188e-01
48.341000	1.432374	dec_nonsocial_accept_low	1.432374	32.000000	n/a	3	-1.367188e-01	-1.367188e-01
55.990967	0.949954	dec_nonsocial_choice	0.949954	32.000000	n/a	3	-1.373698e-01	-1.373698e-01
55.990967	0.949954	dec_choice	0.949954	32.000000	n/a	3	-1.367188e-01	-1.367188e-01
55.990967	0.949954	dec_nonsocial_accept	0.949954	32.000000	n/a	3	-1.373698e-01	-1.373698e-01
55.990967	0.949954	dec_accept	0.949954	32.000000	n/a	3	-1.367188e-01	-1.367188e-01
55.990967	0.949954	dec_nonsocial_low	0.949954	32.000000	n/a	3	-1.367188e-01	-1.367188e-01
55.990967	0.949954	dec_nonsocial_accept_low	0.949954	32.000000	n/a	3	-1.367188e-01	-1.367188e-01
62.824818	0.849361	dec_social_choice	0.849361	16.000000	n/a	8	2.688802e-01	2.688802e-01
62.824818	0.849361	dec_choice	0.849361	16.000000	n/a	8	2.682292e-01	2.682292e-01
62.824818	0.849361	dec_social_accept	0.849361	16.000000	n/a	8	2.688802e-01	2.688802e-01
62.824818	0.849361	dec_accept	0.849361	16.000000	n/a	8	2.682292e-01	2.682292e-01
62.824818	0.849361	dec_social_high	0.849361	16.000000	n/a	8	2.682292e-01	2.682292e-01
62.824818	0.849361	dec_social_accept_high	0.849361	16.000000	n/a	8	2.682292e-01	2.682292e-01
70.475044	0.814856	dec_nonsocial_choice	0.814856	32.000000	n/a	2	-1.686198e-01	-1.686198e-01
70.475044	0.814856	dec_choice	0.814856	32.000000	n/a	2	-1.679688e-01	-1.679688e-01
70.475044	0.814856	dec_nonsocial_accept	0.814856	32.000000	n/a	2	-1.686198e-01	-1.686198e-01
70.475044	0.814856	dec_accept	0.814856	32.000000	n/a	2	-1.679688e-01	-1.679688e-01
70.475044	0.814856	dec_nonsocial_accept_low	0.814856	32.000000	n/a	2	-1.692708e-01	-1.692708e-01
79.741070	0.882611	dec_nonsocial_choice	0.882611	32.000000	n/a	16	2.688802e-01	2.688802e-01
79.741070	0.882611	dec_choice	0.882611	32.000000	n/a	16	2.695312e-01	2.695312e-01
79.741070	0.882611	dec_nonsocial_accept	0.882611	32.000000	n/a	16	2.688802e-01	2.688802e-01
79.741070	0.882611	dec_accept	0.882611	32.000000	n/a	16	2.695312e-01	2.695312e-01
79.741070	0.882611	dec_nonsocial_high	0.882611	32.000000	n/a	16	2.695312e-01	2.695312e-01
79.741070	0.882611	dec_nonsocial_accept_high	0.882611	32.000000	n/a	16	2.695312e-01	2.695312e-01
87.390816	0.815606	dec_social_choice	0.815606	32.000000	n/a	16	2.688802e-01	2.688802e-01
87.390816	0.815606	dec_choice	0.815606	32.000000	n/a	16	2.682292e-01	2.682292e-01
87.390816	0.815606	dec_social_accept	0.815606	32.000000	n/a	16	2.688802e-01	2.688802e-01
87.390816	0.815606	dec_accept	0.815606	32.000000	n/a	16	2.682292e-01	2.682292e-01
87.390816	0.815606	dec_social_accept_high	0.815606	32.000000	n/a	16	2.682292e-01	2.682292e-01
94.222885	1.167722	dec_social_choice	1.167722	32.000000	n/a	16	2.688802e-01	2.688802e-01
94.222885	1.167722	dec_choice	1.167722	32.000000	n/a	16	2.682292e-01	2.682292e-01
94.222885	1.167722	dec_social_accept	1.167722	32.000000	n/a	16	2.688802e-01	2.688802e-01
94.222885	1.167722	dec_accept	1.167722	32.000000	n/a	16	2.682292e-01	2.682292e-01
94.222885	1.167722	dec_social_high	1.167722	32.000000	n/a	16	2.682292e-01	2.682292e-01
94.222885	1.167722	dec_social_accept_high	1.167722	32.000000	n/a	16	2.682292e-01	2.682292e-01
101.056970	1.033402	dec_social_choice	1.033402	16.000000	n/a	1	-1.686198e-01	-1.686198e-01
101.056970	1.033402	dec_choice	1.033402	16.000000	n/a	1	-1.692708e-01	-1.692708e-01
101.056970	1.033402	dec_social_accept	1.033402	16.000000	n/a	1	-1.686198e-01	-1.686198e-01
101.056970	1.033402	dec_accept	1.033402	16.000000	n/a	1	-1.692708e-01	-1.692708e-01
101.056970	1.033402	dec_social_accept_low	1.033402	16.000000	n/a	1	-1.692708e-01	-1.692708e-01
108.706080	0.883804	dec_social_choice	0.883804	16.000000	n/a	2	-1.061198e-01	-1.061198e-01
108.706080	0.883804	dec_choice	0.883804	16.000000	n/a	2	-1.067708e-01	-1.067708e-01
108.706080	0.883804	dec_social_accept	0.883804	16.000000	n/a	2	-1.061198e-01	-1.061198e-01
108.706080	0.883804	dec_accept	0.883804	16.000000	n/a	2	-1.067708e-01	-1.067708e-01
108.706080	0.883804	dec_social_low	0.883804	16.000000	n/a	2	-1.067708e-01	-1.067708e-01
108.706080	0.883804	dec_social_accept_low	0.883804	16.000000	n/a	2	-1.067708e-01	-1.067708e-01
116.357980	0.599405	dec_social_choice	0.599405	16.000000	n/a	2	-1.061198e-01	-1.061198e-01
116.357980	0.599405	dec_choice	0.599405	16.000000	n/a	2	-1.067708e-01	-1.067708e-01
116.357980	0.599405	dec_social_accept	0.599405	16.000000	n/a	2	-1.061198e-01	-1.061198e-01
116.357980	0.599405	dec_accept	0.599405	16.000000	n/a	2	-1.067708e-01	-1.067708e-01
116.357980	0.599405	dec_social_accept_low	0.599405	16.000000	n/a	2	-1.067708e-01	-1.067708e-01
123.190060	0.833203	dec_social_choice	0.833203	16.000000	n/a	4	1.888021e-02	1.888021e-02
123.190060	0.833203	dec_choice	0.833203	16.000000	n/a	4	1.822917e-02	1.822917e-02
123.190060	0.833203	dec_social_accept	0.833203	16.000000	n/a	4	1.888021e-02	1.888021e-02
123.190060	0.833203	dec_accept	0.833203	16.000000	n/a	4	1.822917e-02	1.822917e-02
123.190060	0.833203	dec_social_accept_high	0.833203	16.000000	n/a	4	1.822917e-02	1.822917e-02
130.023800	0.766369	dec_nonsocial_choice	0.766369	16.000000	n/a	4	1.888021e-02	1.888021e-02
130.023800	0.766369	dec_choice	0.766369	16.000000	n/a	4	1.953125e-02	1.953125e-02
130.023800	0.766369	dec_nonsocial_accept	0.766369	16.000000	n/a	4	1.888021e-02	1.888021e-02
130.023800	0.766369	dec_accept	0.766369	16.000000	n/a	4	1.953125e-02	1.953125e-02
130.023800	0.766369	dec_nonsocial_high	0.766369	16.000000	n/a	4	1.953125e-02	1.953125e-02
130.023800	0.766369	dec_nonsocial_accept_high	0.766369	16.000000	n/a	4	1.953125e-02	1.953125e-02
140.890180	0.816775	dec_social_choice	0.816775	16.000000	n/a	1	-1.686198e-01	-1.686198e-01
140.890180	0.816775	dec_choice	0.816775	16.000000	n/a	1	-1.692708e-01	-1.692708e-01
140.890180	0.816775	dec_social_accept	0.816775	16.000000	n/a	1	-1.686198e-01	-1.686198e-01
140.890180	0.816775	dec_accept	0.816775	16.000000	n/a	1	-1.692708e-01	-1.692708e-01
140.890180	0.816775	dec_social_low	0.816775	16.000000	n/a	1	-1.692708e-01	-1.692708e-01
140.890180	0.816775	dec_social_accept_low	0.816775	16.000000	n/a	1	-1.692708e-01	-1.692708e-01
150.140550	0.799470	dec_social_choice	0.799470	32.000000	n/a	8	1.888021e-02	1.888021e-02
150.140550	0.799470	dec_choice	0.799470	32.000000	n/a	8	1.822917e-02	1.822917e-02
150.140550	0.799470	dec_social_accept	0.799470	32.000000	n/a	8	1.888021e-02	1.888021e-02
150.140550	0.799470	dec_accept	0.799470	32.000000	n/a	8	1.822917e-02	1.822917e-02
150.140550	0.799470	dec_social_accept_high	0.799470	32.000000	n/a	8	1.822917e-02	1.822917e-02
159.390320	0.799873	dec_social_choice	0.799873	32.000000	n/a	3	-1.373698e-01	-1.373698e-01
159.390320	0.799873	dec_choice	0.799873	32.000000	n/a	3	-1.380208e-01	-1.380208e-01
159.390320	0.799873	dec_social_accept	0.799873	32.000000	n/a	3	-1.373698e-01	-1.373698e-01
159.390320	0.799873	dec_accept	0.799873	32.000000	n/a	3	-1.380208e-01	-1.380208e-01
159.390320	0.799873	dec_social_accept_low	0.799873	32.000000	n/a	3	-1.380208e-01	-1.380208e-01
168.640580	0.733087	dec_nonsocial_choice	0.733087	32.000000	n/a	3	-1.373698e-01	-1.373698e-01
168.640580	0.733087	dec_choice	0.733087	32.000000	n/a	3	-1.367188e-01	-1.367188e-01
168.640580	0.733087	dec_nonsocial_accept	0.733087	32.000000	n/a	3	-1.373698e-01	-1.373698e-01
168.640580	0.733087	dec_accept	0.733087	32.000000	n/a	3	-1.367188e-01	-1.367188e-01
168.640580	0.733087	dec_nonsocial_accept_low	0.733087	32.000000	n/a	3	-1.380208e-01	-1.380208e-01
175.473250	0.616935	dec_nonsocial_choice	0.616935	32.000000	n/a	16	2.688802e-01	2.688802e-01
175.473250	0.616935	dec_choice	0.616935	32.000000	n/a	16	2.695312e-01	2.695312e-01
175.473250	0.616935	dec_nonsocial_accept	0.616935	32.000000	n/a	16	2.688802e-01	2.688802e-01
175.473250	0.616935	dec_accept	0.616935	32.000000	n/a	16	2.695312e-01	2.695312e-01
175.473250	0.616935	dec_nonsocial_accept_high	0.616935	32.000000	n/a	16	2.682292e-01	2.682292e-01
182.307920	0.715215	dec_social_choice	0.715215	32.000000	n/a	2	-1.686198e-01	-1.686198e-01
182.307920	0.715215	dec_choice	0.715215	32.000000	n/a	2	-1.692708e-01	-1.692708e-01
182.307920	0.715215	dec_social_accept	0.715215	32.000000	n/a	2	-1.686198e-01	-1.686198e-01
182.307920	0.715215	dec_accept	0.715215	32.000000	n/a	2	-1.692708e-01	-1.692708e-01
182.307920	0.715215	dec_social_accept_low	0.715215	32.000000	n/a	2	-1.692708e-01	-1.692708e-01
193.190060	0.883521	dec_nonsocial_choice	0.883521	16.000000	n/a	2	-1.061198e-01	-1.061198e-01
193.190060	0.883521	dec_choice	0.883521	16.000000	n/a	2	-1.054688e-01	-1.054688e-01
193.190060	0.883521	dec_nonsocial_accept	0.883521	16.000000	n/a	2	-1.061198e-01	-1.061198e-01
193.190060	0.883521	dec_accept	0.883521	16.000000	n/a	2	-1.054688e-01	-1.054688e-01
193.190060	0.883521	dec_nonsocial_low	0.883521	16.000000	n/a	2	-1.054688e-01	-1.054688e-01
193.190060	0.883521	dec_nonsocial_accept_low	0.883521	16.000000	n/a	2	-1.054688e-01	-1.054688e-01
200.023680	0.950154	dec_nonsocial_choice	0.950154	16.000000	n/a	4	1.888021e-02	1.888021e-02
200.023680	0.950154	dec_choice	0.950154	16.000000	n/a	4	1.953125e-02	1.953125e-02
200.023680	0.950154	dec_nonsocial_accept	0.950154	16.000000	n/a	4	1.888021e-02	1.888021e-02
200.023680	0.950154	dec_accept	0.950154	16.000000	n/a	4	1.953125e-02	1.953125e-02
200.023680	0.950154	dec_nonsocial_high	0.950154	16.000000	n/a	4	1.953125e-02	1.953125e-02
200.023680	0.950154	dec_nonsocial_accept_high	0.950154	16.000000	n/a	4	1.953125e-02	1.953125e-02
207.672710	1.250630	dec_social_choice	1.250630	16.000000	n/a	2	-1.061198e-01	-1.061198e-01
207.672710	1.250630	dec_choice	1.250630	16.000000	n/a	2	-1.067708e-01	-1.067708e-01
207.672710	1.250630	dec_social_accept	1.250630	16.000000	n/a	2	-1.061198e-01	-1.061198e-01
207.672710	1.250630	dec_accept	1.250630	16.000000	n/a	2	-1.067708e-01	-1.067708e-01
207.672710	1.250630	dec_social_accept_low	1.250630	16.000000	n/a	2	-1.067708e-01	-1.067708e-01
215.323720	0.749852	dec_nonsocial_choice	0.749852	32.000000	n/a	8	1.888021e-02	1.888021e-02
215.323720	0.749852	dec_choice	0.749852	32.000000	n/a	8	1.953125e-02	1.953125e-02
215.323720	0.749852	dec_nonsocial_accept	0.749852	32.000000	n/a	8	1.888021e-02	1.888021e-02
215.323720	0.749852	dec_accept	0.749852	32.000000	n/a	8	1.953125e-02	1.953125e-02
215.323720	0.749852	dec_nonsocial_accept_high	0.749852	32.000000	n/a	8	1.822917e-02	1.822917e-02
222.973890	0.782848	dec_social_choice	0.782848	32.000000	n/a	8	1.888021e-02	1.888021e-02
222.973890	0.782848	dec_choice	0.782848	32.000000	n/a	8	1.822917e-02	1.822917e-02
222.973890	0.782848	dec_social_accept	0.782848	32.000000	n/a	8	1.888021e-02	1.888021e-02
222.973890	0.782848	dec_accept	0.782848	32.000000	n/a	8	1.822917e-02	1.822917e-02
222.973890	0.782848	dec_social_accept_high	0.782848	32.000000	n/a	8	1.822917e-02	1.822917e-02
229.806900	1.033119	dec_nonsocial_choice	1.033119	32.000000	n/a	2	-1.686198e-01	-1.686198e-01
229.806900	1.033119	dec_choice	1.033119	32.000000	n/a	2	-1.679688e-01	-1.679688e-01
229.806900	1.033119	dec_nonsocial_accept	1.033119	32.000000	n/a	2	-1.686198e-01	-1.686198e-01
229.806900	1.033119	dec_accept	1.033119	32.000000	n/a	2	-1.679688e-01	-1.679688e-01
229.806900	1.033119	dec_nonsocial_low	1.033119	32.000000	n/a	2	-1.679688e-01	-1.679688e-01
229.806900	1.033119	dec_nonsocial_accept_low	1.033119	32.000000	n/a	2	-1.679688e-01	-1.679688e-01
236.639950	0.833552	dec_nonsocial_choice	0.833552	16.000000	n/a	2	-1.061198e-01	-1.061198e-01
236.639950	0.833552	dec_choice	0.833552	16.000000	n/a	2	-1.054688e-01	-1.054688e-01
236.639950	0.833552	dec_nonsocial_accept	0.833552	16.000000	n/a	2	-1.061198e-01	-1.061198e-01
236.639950	0.833552	dec_accept	0.833552	16.000000	n/a	2	-1.054688e-01	-1.054688e-01
236.639950	0.833552	dec_nonsocial_low	0.833552	16.000000	n/a	2	-1.054688e-01	-1.054688e-01
236.639950	0.833552	dec_nonsocial_accept_low	0.833552	16.000000	n/a	2	-1.054688e-01	-1.054688e-01
247.506930	0.865754	dec_nonsocial_choice	0.865754	32.000000	n/a	2	-1.686198e-01	-1.686198e-01
247.506930	0.865754	dec_choice	0.865754	32.000000	n/a	2	-1.679688e-01	-1.679688e-01
247.506930	0.865754	dec_nonsocial_accept	0.865754	32.000000	n/a	2	-1.686198e-01	-1.686198e-01
247.506930	0.865754	dec_accept	0.865754	32.000000	n/a	2	-1.679688e-01	-1.679688e-01
247.506930	0.865754	dec_nonsocial_accept_low	0.865754	32.000000	n/a	2	-1.692708e-01	-1.692708e-01
255.156900	0.599815	dec_social_choice	0.599815	32.000000	n/a	16	2.688802e-01	2.688802e-01
255.156900	0.599815	dec_choice	0.599815	32.000000	n/a	16	2.682292e-01	2.682292e-01
255.156900	0.599815	dec_social_accept	0.599815	32.000000	n/a	16	2.688802e-01	2.688802e-01
255.156900	0.599815	dec_accept	0.599815	32.000000	n/a	16	2.682292e-01	2.682292e-01
255.156900	0.599815	dec_social_accept_high	0.599815	32.000000	n/a	16	2.682292e-01	2.682292e-01
261.990050	0.750010	dec_nonsocial_choice	0.750010	16.000000	n/a	4	1.888021e-02	1.888021e-02
261.990050	0.750010	dec_choice	0.750010	16.000000	n/a	4	1.953125e-02	1.953125e-02
261.990050	0.750010	dec_nonsocial_accept	0.750010	16.000000	n/a	4	1.888021e-02	1.888021e-02
261.990050	0.750010	dec_accept	0.750010	16.000000	n/a	4	1.953125e-02	1.953125e-02
261.990050	0.750010	dec_nonsocial_accept_high	0.750010	16.000000	n/a	4	1.822917e-02	1.822917e-02
268.823300	0.882853	dec_nonsocial_choice	0.882853	16.000000	n/a	8	2.688802e-01	2.688802e-01
268.823300	0.882853	dec_choice	0.882853	16.000000	n/a	8	2.695312e-01	2.695312e-01
268.823300	0.882853	dec_nonsocial_accept	0.882853	16.000000	n/a	8	2.688802e-01	2.688802e-01
268.823300	0.882853	dec_accept	0.882853	16.000000	n/a	8	2.695312e-01	2.695312e-01
268.823300	0.882853	dec_nonsocial_high	0.882853	16.000000	n/a	8	2.695312e-01	2.695312e-01
268.823300	0.882853	dec_nonsocial_accept_high	0.882853	16.000000	n/a	8	2.695312e-01	2.695312e-01
275.657350	0.765356	dec_nonsocial_choice	0.765356	32.000000	n/a	16	2.688802e-01	2.688802e-01
275.657350	0.765356	dec_choice	0.765356	32.000000	n/a	16	2.695312e-01	2.695312e-01
275.657350	0.765356	dec_nonsocial_accept	0.765356	32.000000	n/a	16	2.688802e-01	2.688802e-01
275.657350	0.765356	dec_accept	0.765356	32.000000	n/a	16	2.695312e-01	2.695312e-01
275.657350	0.765356	dec_nonsocial_accept_high	0.765356	32.000000	n/a	16	2.682292e-01	2.682292e-01
283.307040	0.799895	dec_social_choice	0.799895	32.000000	n/a	16	2.688802e-01	2.688802e-01
283.307040	0.799895	dec_choice	0.799895	32.000000	n/a	16	2.682292e-01	2.682292e-01
283.307040	0.799895	dec_social_accept	0.799895	32.000000	n/a	16	2.688802e-01	2.688802e-01
283.307040	0.799895	dec_accept	0.799895	32.000000	n/a	16	2.682292e-01	2.682292e-01
283.307040	0.799895	dec_social_high	0.799895	32.000000	n/a	16	2.682292e-01	2.682292e-01
283.307040	0.799895	dec_social_accept_high	0.799895	32.000000	n/a	16	2.682292e-01	2.682292e-01
290.139280	0.650415	dec_social_choice	0.650415	32.000000	n/a	8	1.888021e-02	1.888021e-02
290.139280	0.650415	dec_choice	0.650415	32.000000	n/a	8	1.822917e-02	1.822917e-02
290.139280	0.650415	dec_social_accept	0.650415	32.000000	n/a	8	1.888021e-02	1.888021e-02
290.139280	0.650415	dec_accept	0.650415	32.000000	n/a	8	1.822917e-02	1.822917e-02
290.139280	0.650415	dec_social_accept_high	0.650415	32.000000	n/a	8	1.822917e-02	1.822917e-02
296.972300	0.884098	dec_social_choice	0.884098	16.000000	n/a	2	-1.061198e-01	-1.061198e-01
296.972300	0.884098	dec_choice	0.884098	16.000000	n/a	2	-1.067708e-01	-1.067708e-01
296.972300	0.884098	dec_social_accept	0.884098	16.000000	n/a	2	-1.061198e-01	-1.061198e-01
296.972300	0.884098	dec_accept	0.884098	16.000000	n/a	2	-1.067708e-01	-1.067708e-01
296.972300	0.884098	dec_social_low	0.884098	16.000000	n/a	2	-1.067708e-01	-1.067708e-01
296.972300	0.884098	dec_social_accept_low	0.884098	16.000000	n/a	2	-1.067708e-01	-1.067708e-01
304.622700	0.634166	dec_nonsocial_choice	0.634166	32.000000	n/a	2	-1.686198e-01	-1.686198e-01
304.622700	0.634166	dec_choice	0.634166	32.000000	n/a	2	-1.679688e-01	-1.679688e-01
304.622700	0.634166	dec_nonsocial_accept	0.634166	32.000000	n/a	2	-1.686198e-01	-1.686198e-01
304.622700	0.634166	dec_accept	0.634166	32.000000	n/a	2	-1.679688e-01	-1.679688e-01
304.622700	0.634166	dec_nonsocial_accept_low	0.634166	32.000000	n/a	2	-1.692708e-01	-1.692708e-01
317.105700	0.783696	dec_social_choice	0.783696	32.000000	n/a	8	1.888021e-02	1.888021e-02
317.105700	0.783696	dec_choice	0.783696	32.000000	n/a	8	1.822917e-02	1.822917e-02
317.105700	0.783696	dec_social_accept	0.783696	32.000000	n/a	8	1.888021e-02	1.888021e-02
317.105700	0.783696	dec_accept	0.783696	32.000000	n/a	8	1.822917e-02	1.822917e-02
317.105700	0.783696	dec_social_high	0.783696	32.000000	n/a	8	1.822917e-02	1.822917e-02
317.105700	0.783696	dec_social_accept_high	0.783696	32.000000	n/a	8	1.822917e-02	1.822917e-02
323.939450	0.883321	dec_social_choice	0.883321	32.000000	n/a	2	-1.686198e-01	-1.686198e-01
323.939450	0.883321	dec_choice	0.883321	32.000000	n/a	2	-1.692708e-01	-1.692708e-01
323.939450	0.883321	dec_social_accept	0.883321	32.000000	n/a	2	-1.686198e-01	-1.686198e-01
323.939450	0.883321	dec_accept	0.883321	32.000000	n/a	2	-1.692708e-01	-1.692708e-01
323.939450	0.883321	dec_social_low	0.883321	32.000000	n/a	2	-1.692708e-01	-1.692708e-01
323.939450	0.883321	dec_social_accept_low	0.883321	32.000000	n/a	2	-1.692708e-01	-1.692708e-01
330.773900	0.782580	dec_nonsocial_choice	0.782580	16.000000	n/a	4	1.888021e-02	1.888021e-02
330.773900	0.782580	dec_choice	0.782580	16.000000	n/a	4	1.953125e-02	1.953125e-02
330.773900	0.782580	dec_nonsocial_accept	0.782580	16.000000	n/a	4	1.888021e-02	1.888021e-02
330.773900	0.782580	dec_accept	0.782580	16.000000	n/a	4	1.953125e-02	1.953125e-02
330.773900	0.782580	dec_nonsocial_high	0.782580	16.000000	n/a	4	1.953125e-02	1.953125e-02
330.773900	0.782580	dec_nonsocial_accept_high	0.782580	16.000000	n/a	4	1.953125e-02	1.953125e-02
338.423860	0.799252	dec_nonsocial_choice	0.799252	16.000000	n/a	8	2.688802e-01	2.688802e-01
338.423860	0.799252	dec_choice	0.799252	16.000000	n/a	8	2.695312e-01	2.695312e-01
338.423860	0.799252	dec_nonsocial_accept	0.799252	16.000000	n/a	8	2.688802e-01	2.688802e-01
338.423860	0.799252	dec_accept	0.799252	16.000000	n/a	8	2.695312e-01	2.695312e-01
338.423860	0.799252	dec_nonsocial_high	0.799252	16.000000	n/a	8	2.695312e-01	2.695312e-01
338.423860	0.799252	dec_nonsocial_accept_high	0.799252	16.000000	n/a	8	2.695312e-01	2.695312e-01
345.256870	0.882909	dec_nonsocial_choice	0.882909	32.000000	n/a	2	-1.686198e-01	-1.686198e-01
345.256870	0.882909	dec_choice	0.882909	32.000000	n/a	2	-1.679688e-01	-1.679688e-01
345.256870	0.882909	dec_nonsocial_accept	0.882909	32.000000	n/a	2	-1.686198e-01	-1.686198e-01
345.256870	0.882909	dec_accept	0.882909	32.000000	n/a	2	-1.679688e-01	-1.679688e-01
345.256870	0.882909	dec_nonsocial_accept_low	0.882909	32.000000	n/a	2	-1.692708e-01	-1.692708e-01
354.522900	0.750188	dec_nonsocial_choice	0.750188	32.000000	n/a	16	2.688802e-01	2.688802e-01
354.522900	0.750188	dec_choice	0.750188	32.000000	n/a	16	2.695312e-01	2.695312e-01
354.522900	0.750188	dec_nonsocial_accept	0.750188	32.000000	n/a	16	2.688802e-01	2.688802e-01
354.522900	0.750188	dec_accept	0.750188	32.000000	n/a	16	2.695312e-01	2.695312e-01
354.522900	0.750188	dec_nonsocial_high	0.750188	32.000000	n/a	16	2.695312e-01	2.695312e-01
354.522900	0.750188	dec_nonsocial_accept_high	0.750188	32.000000	n/a	16	2.695312e-01	2.695312e-01
363.789030	0.967306	dec_social_choice	0.967306	32.000000	n/a	16	2.688802e-01	2.688802e-01
363.789030	0.967306	dec_choice	0.967306	32.000000	n/a	16	2.682292e-01	2.682292e-01
363.789030	0.967306	dec_social_accept	0.967306	32.000000	n/a	16	2.688802e-01	2.688802e-01
363.789030	0.967306	dec_accept	0.967306	32.000000	n/a	16	2.682292e-01	2.682292e-01
363.789030	0.967306	dec_social_high	0.967306	32.000000	n/a	16	2.682292e-01	2.682292e-01
363.789030	0.967306	dec_social_accept_high	0.967306	32.000000	n/a	16	2.682292e-01	2.682292e-01
373.038880	0.950690	dec_social_choice	0.950690	32.000000	n/a	3	-1.373698e-01	-1.373698e-01
373.038880	0.950690	dec_choice	0.950690	32.000000	n/a	3	-1.380208e-01	-1.380208e-01
373.038880	0.950690	dec_social_accept	0.950690	32.000000	n/a	3	-1.373698e-01	-1.373698e-01
373.038880	0.950690	dec_accept	0.950690	32.000000	n/a	3	-1.380208e-01	-1.380208e-01
373.038880	0.950690	dec_social_low	0.950690	32.000000	n/a	3	-1.380208e-01	-1.380208e-01
373.038880	0.950690	dec_social_accept_low	0.950690	32.000000	n/a	3	-1.380208e-01	-1.380208e-01
