onset	duration	trial_type	response_time	Endowment	Endowment_pmod	Decision	Decision_pmod	Offer_pmod
4.529879	2	cue_social	n/a	16	-12	n/a	n/a	n/a
4.529879	2	cue_social_low	n/a	16	-7	n/a	n/a	n/a
11.347073	2	cue_nonsocial	n/a	16	-7	n/a	n/a	n/a
11.347073	2	cue_nonsocial_low	n/a	16	-12	n/a	n/a	n/a
18.180788	2	cue_nonsocial	n/a	16	-7	n/a	n/a	n/a
18.180788	2	cue_nonsocial_low	n/a	16	-12	n/a	n/a	n/a
25.014652	2	cue_nonsocial	n/a	16	-7	n/a	n/a	n/a
25.014652	2	cue_nonsocial_low	n/a	16	-12	n/a	n/a	n/a
31.847860	2	cue_nonsocial	n/a	32	9	n/a	n/a	n/a
31.847860	2	cue_nonsocial_high	n/a	32	4	n/a	n/a	n/a
38.680897	2	cue_nonsocial	n/a	16	-7	n/a	n/a	n/a
38.680897	2	cue_nonsocial_low	n/a	16	-12	n/a	n/a	n/a
45.513958	2	cue_nonsocial	n/a	16	-7	n/a	n/a	n/a
45.513958	2	cue_nonsocial_low	n/a	16	-12	n/a	n/a	n/a
53.237488	2	cue_social	n/a	32	4	n/a	n/a	n/a
53.237488	2	cue_social_high	n/a	32	9	n/a	n/a	n/a
62.504524	2	cue_social	n/a	32	4	n/a	n/a	n/a
62.504524	2	cue_social_high	n/a	32	9	n/a	n/a	n/a
71.680580	2	cue_nonsocial	n/a	16	-7	n/a	n/a	n/a
71.680580	2	cue_nonsocial_low	n/a	16	-12	n/a	n/a	n/a
80.947266	2	cue_nonsocial	n/a	16	-7	n/a	n/a	n/a
80.947266	2	cue_nonsocial_low	n/a	16	-12	n/a	n/a	n/a
88.663870	2	cue_social	n/a	16	-12	n/a	n/a	n/a
88.663870	2	cue_social_low	n/a	16	-7	n/a	n/a	n/a
95.490670	2	cue_social	n/a	32	4	n/a	n/a	n/a
95.490670	2	cue_social_high	n/a	32	9	n/a	n/a	n/a
103.131485	2	cue_social	n/a	32	4	n/a	n/a	n/a
103.131485	2	cue_social_high	n/a	32	9	n/a	n/a	n/a
110.011406	2	cue_social	n/a	16	-12	n/a	n/a	n/a
110.011406	2	cue_social_low	n/a	16	-7	n/a	n/a	n/a
117.548970	2	cue_nonsocial	n/a	16	-7	n/a	n/a	n/a
117.548970	2	cue_nonsocial_low	n/a	16	-12	n/a	n/a	n/a
124.380775	2	cue_nonsocial	n/a	32	9	n/a	n/a	n/a
124.380775	2	cue_nonsocial_high	n/a	32	4	n/a	n/a	n/a
131.290560	2	cue_social	n/a	32	4	n/a	n/a	n/a
131.290560	2	cue_social_high	n/a	32	9	n/a	n/a	n/a
138.047360	2	cue_nonsocial	n/a	32	9	n/a	n/a	n/a
138.047360	2	cue_nonsocial_high	n/a	32	4	n/a	n/a	n/a
147.313390	2	cue_nonsocial	n/a	16	-7	n/a	n/a	n/a
147.313390	2	cue_nonsocial_low	n/a	16	-12	n/a	n/a	n/a
155.040020	2	cue_social	n/a	32	4	n/a	n/a	n/a
155.040020	2	cue_social_high	n/a	32	9	n/a	n/a	n/a
161.887000	2	cue_social	n/a	32	4	n/a	n/a	n/a
161.887000	2	cue_social_high	n/a	32	9	n/a	n/a	n/a
168.755160	2	cue_social	n/a	32	4	n/a	n/a	n/a
168.755160	2	cue_social_high	n/a	32	9	n/a	n/a	n/a
175.463420	2	cue_nonsocial	n/a	16	-7	n/a	n/a	n/a
175.463420	2	cue_nonsocial_low	n/a	16	-12	n/a	n/a	n/a
182.297400	2	cue_nonsocial	n/a	16	-7	n/a	n/a	n/a
182.297400	2	cue_nonsocial_low	n/a	16	-12	n/a	n/a	n/a
190.035100	2	cue_social	n/a	32	4	n/a	n/a	n/a
190.035100	2	cue_social_high	n/a	32	9	n/a	n/a	n/a
202.441700	2	cue_social	n/a	32	4	n/a	n/a	n/a
202.441700	2	cue_social_high	n/a	32	9	n/a	n/a	n/a
210.080870	2	cue_nonsocial	n/a	32	9	n/a	n/a	n/a
210.080870	2	cue_nonsocial_high	n/a	32	4	n/a	n/a	n/a
217.730120	2	cue_nonsocial	n/a	16	-7	n/a	n/a	n/a
217.730120	2	cue_nonsocial_low	n/a	16	-12	n/a	n/a	n/a
224.656660	2	cue_social	n/a	32	4	n/a	n/a	n/a
224.656660	2	cue_social_high	n/a	32	9	n/a	n/a	n/a
231.507540	2	cue_social	n/a	32	4	n/a	n/a	n/a
231.507540	2	cue_social_high	n/a	32	9	n/a	n/a	n/a
240.762160	2	cue_social	n/a	16	-12	n/a	n/a	n/a
240.762160	2	cue_social_low	n/a	16	-7	n/a	n/a	n/a
249.915910	2	cue_nonsocial	n/a	16	-7	n/a	n/a	n/a
249.915910	2	cue_nonsocial_low	n/a	16	-12	n/a	n/a	n/a
256.746340	2	cue_nonsocial	n/a	32	9	n/a	n/a	n/a
256.746340	2	cue_nonsocial_high	n/a	32	4	n/a	n/a	n/a
267.613000	2	cue_nonsocial	n/a	32	9	n/a	n/a	n/a
267.613000	2	cue_nonsocial_high	n/a	32	4	n/a	n/a	n/a
274.446470	2	cue_nonsocial	n/a	32	9	n/a	n/a	n/a
274.446470	2	cue_nonsocial_high	n/a	32	4	n/a	n/a	n/a
281.279940	2	cue_social	n/a	32	4	n/a	n/a	n/a
281.279940	2	cue_social_high	n/a	32	9	n/a	n/a	n/a
288.113830	2	cue_nonsocial	n/a	32	9	n/a	n/a	n/a
288.113830	2	cue_nonsocial_high	n/a	32	4	n/a	n/a	n/a
295.875460	2	cue_social	n/a	32	4	n/a	n/a	n/a
295.875460	2	cue_social_high	n/a	32	9	n/a	n/a	n/a
302.720340	2	cue_social	n/a	16	-12	n/a	n/a	n/a
302.720340	2	cue_social_low	n/a	16	-7	n/a	n/a	n/a
310.328120	2	cue_social	n/a	32	4	n/a	n/a	n/a
310.328120	2	cue_social_high	n/a	32	9	n/a	n/a	n/a
317.079380	2	cue_social	n/a	16	-12	n/a	n/a	n/a
317.079380	2	cue_social_low	n/a	16	-7	n/a	n/a	n/a
323.986850	2	cue_social	n/a	32	4	n/a	n/a	n/a
323.986850	2	cue_social_high	n/a	32	9	n/a	n/a	n/a
331.647060	2	cue_social	n/a	32	4	n/a	n/a	n/a
331.647060	2	cue_social_high	n/a	32	9	n/a	n/a	n/a
339.213680	2	cue_nonsocial	n/a	32	9	n/a	n/a	n/a
339.213680	2	cue_nonsocial_high	n/a	32	4	n/a	n/a	n/a
346.863200	2	cue_nonsocial	n/a	16	-7	n/a	n/a	n/a
346.863200	2	cue_nonsocial_low	n/a	16	-12	n/a	n/a	n/a
356.112950	2	cue_nonsocial	n/a	32	9	n/a	n/a	n/a
356.112950	2	cue_nonsocial_high	n/a	32	4	n/a	n/a	n/a
367.071260	2	cue_social	n/a	32	4	n/a	n/a	n/a
367.071260	2	cue_social_high	n/a	32	9	n/a	n/a	n/a
6.519401	1.716218	dec_social_choice	1.716218	16.000000	n/a	1	-1.666667e-01	-1.666667e-01
6.519401	1.716218	dec_choice	1.716218	16.000000	n/a	1	-1.640625e-01	-1.640625e-01
6.519401	1.716218	dec_social_accept	1.716218	16.000000	n/a	1	-1.666667e-01	-1.666667e-01
6.519401	1.716218	dec_accept	1.716218	16.000000	n/a	1	-1.640625e-01	-1.640625e-01
6.519401	1.716218	dec_social_low	1.716218	16.000000	n/a	1	-1.640625e-01	-1.640625e-01
6.519401	1.716218	dec_social_accept_low	1.716218	16.000000	n/a	1	-1.640625e-01	-1.640625e-01
13.353062	1.066942	dec_nonsocial_choice	1.066942	16.000000	n/a	8	2.708333e-01	2.708333e-01
13.353062	1.066942	dec_choice	1.066942	16.000000	n/a	8	2.682292e-01	2.682292e-01
13.353062	1.066942	dec_nonsocial_accept	1.066942	16.000000	n/a	8	2.708333e-01	2.708333e-01
13.353062	1.066942	dec_accept	1.066942	16.000000	n/a	8	2.682292e-01	2.682292e-01
13.353062	1.066942	dec_nonsocial_accept_high	1.066942	16.000000	n/a	8	2.734375e-01	2.734375e-01
20.187006	0.832460	dec_nonsocial_choice	0.832460	16.000000	n/a	2	-1.041667e-01	-1.041667e-01
20.187006	0.832460	dec_choice	0.832460	16.000000	n/a	2	-1.067708e-01	-1.067708e-01
20.187006	0.832460	dec_nonsocial_accept	0.832460	16.000000	n/a	2	-1.041667e-01	-1.041667e-01
20.187006	0.832460	dec_accept	0.832460	16.000000	n/a	2	-1.067708e-01	-1.067708e-01
20.187006	0.832460	dec_nonsocial_accept_low	0.832460	16.000000	n/a	2	-1.015625e-01	-1.015625e-01
27.019196	0.783597	dec_nonsocial_choice	0.783597	16.000000	n/a	2	-1.041667e-01	-1.041667e-01
27.019196	0.783597	dec_choice	0.783597	16.000000	n/a	2	-1.067708e-01	-1.067708e-01
27.019196	0.783597	dec_nonsocial_accept	0.783597	16.000000	n/a	2	-1.041667e-01	-1.041667e-01
27.019196	0.783597	dec_accept	0.783597	16.000000	n/a	2	-1.067708e-01	-1.067708e-01
27.019196	0.783597	dec_nonsocial_low	0.783597	16.000000	n/a	2	-1.067708e-01	-1.067708e-01
27.019196	0.783597	dec_nonsocial_accept_low	0.783597	16.000000	n/a	2	-1.067708e-01	-1.067708e-01
33.852993	0.800173	dec_nonsocial_choice	0.800173	32.000000	n/a	8	2.083333e-02	2.083333e-02
33.852993	0.800173	dec_choice	0.800173	32.000000	n/a	8	1.822917e-02	1.822917e-02
33.852993	0.800173	dec_nonsocial_accept	0.800173	32.000000	n/a	8	2.083333e-02	2.083333e-02
33.852993	0.800173	dec_accept	0.800173	32.000000	n/a	8	1.822917e-02	1.822917e-02
33.852993	0.800173	dec_nonsocial_accept_high	0.800173	32.000000	n/a	8	2.343750e-02	2.343750e-02
40.687195	0.865178	dec_nonsocial_choice	0.865178	16.000000	n/a	1	-1.666667e-01	-1.666667e-01
40.687195	0.865178	dec_choice	0.865178	16.000000	n/a	1	-1.692708e-01	-1.692708e-01
40.687195	0.865178	dec_nonsocial_accept	0.865178	16.000000	n/a	1	-1.666667e-01	-1.666667e-01
40.687195	0.865178	dec_accept	0.865178	16.000000	n/a	1	-1.692708e-01	-1.692708e-01
40.687195	0.865178	dec_nonsocial_low	0.865178	16.000000	n/a	1	-1.692708e-01	-1.692708e-01
40.687195	0.865178	dec_nonsocial_accept_low	0.865178	16.000000	n/a	1	-1.692708e-01	-1.692708e-01
47.520042	0.782750	dec_nonsocial_choice	0.782750	16.000000	n/a	4	2.083333e-02	2.083333e-02
47.520042	0.782750	dec_choice	0.782750	16.000000	n/a	4	1.822917e-02	1.822917e-02
47.520042	0.782750	dec_nonsocial_accept	0.782750	16.000000	n/a	4	2.083333e-02	2.083333e-02
47.520042	0.782750	dec_accept	0.782750	16.000000	n/a	4	1.822917e-02	1.822917e-02
47.520042	0.782750	dec_nonsocial_accept_high	0.782750	16.000000	n/a	4	2.343750e-02	2.343750e-02
55.169890	0.916145	dec_social_choice	0.916145	32.000000	n/a	16	2.708333e-01	2.708333e-01
55.169890	0.916145	dec_choice	0.916145	32.000000	n/a	16	2.734375e-01	2.734375e-01
55.169890	0.916145	dec_social_accept	0.916145	32.000000	n/a	16	2.708333e-01	2.708333e-01
55.169890	0.916145	dec_accept	0.916145	32.000000	n/a	16	2.734375e-01	2.734375e-01
55.169890	0.916145	dec_social_high	0.916145	32.000000	n/a	16	2.734375e-01	2.734375e-01
55.169890	0.916145	dec_social_accept_high	0.916145	32.000000	n/a	16	2.734375e-01	2.734375e-01
64.419655	0.683071	dec_social_choice	0.683071	32.000000	n/a	16	2.708333e-01	2.708333e-01
64.419655	0.683071	dec_choice	0.683071	32.000000	n/a	16	2.734375e-01	2.734375e-01
64.419655	0.683071	dec_social_accept	0.683071	32.000000	n/a	16	2.708333e-01	2.708333e-01
64.419655	0.683071	dec_accept	0.683071	32.000000	n/a	16	2.734375e-01	2.734375e-01
64.419655	0.683071	dec_social_accept_high	0.683071	32.000000	n/a	16	2.734375e-01	2.734375e-01
73.686060	0.816379	dec_nonsocial_choice	0.816379	16.000000	n/a	8	2.708333e-01	2.708333e-01
73.686060	0.816379	dec_choice	0.816379	16.000000	n/a	8	2.682292e-01	2.682292e-01
73.686060	0.816379	dec_nonsocial_accept	0.816379	16.000000	n/a	8	2.708333e-01	2.708333e-01
73.686060	0.816379	dec_accept	0.816379	16.000000	n/a	8	2.682292e-01	2.682292e-01
73.686060	0.816379	dec_nonsocial_accept_high	0.816379	16.000000	n/a	8	2.734375e-01	2.734375e-01
82.953500	0.750062	dec_nonsocial_choice	0.750062	16.000000	n/a	4	2.083333e-02	2.083333e-02
82.953500	0.750062	dec_choice	0.750062	16.000000	n/a	4	1.822917e-02	1.822917e-02
82.953500	0.750062	dec_nonsocial_accept	0.750062	16.000000	n/a	4	2.083333e-02	2.083333e-02
82.953500	0.750062	dec_accept	0.750062	16.000000	n/a	4	1.822917e-02	1.822917e-02
82.953500	0.750062	dec_nonsocial_accept_high	0.750062	16.000000	n/a	4	2.343750e-02	2.343750e-02
90.585120	1.134626	dec_social_choice	1.134626	16.000000	n/a	4	2.083333e-02	2.083333e-02
90.585120	1.134626	dec_choice	1.134626	16.000000	n/a	4	2.343750e-02	2.343750e-02
90.585120	1.134626	dec_social_accept	1.134626	16.000000	n/a	4	2.083333e-02	2.083333e-02
90.585120	1.134626	dec_accept	1.134626	16.000000	n/a	4	2.343750e-02	2.343750e-02
90.585120	1.134626	dec_social_high	1.134626	16.000000	n/a	4	2.343750e-02	2.343750e-02
90.585120	1.134626	dec_social_accept_high	1.134626	16.000000	n/a	4	2.343750e-02	2.343750e-02
97.419800	0.599630	dec_social_choice	0.599630	32.000000	n/a	2	-1.666667e-01	-1.666667e-01
97.419800	0.599630	dec_choice	0.599630	32.000000	n/a	2	-1.640625e-01	-1.640625e-01
97.419800	0.599630	dec_social_accept	0.599630	32.000000	n/a	2	-1.666667e-01	-1.666667e-01
97.419800	0.599630	dec_accept	0.599630	32.000000	n/a	2	-1.640625e-01	-1.640625e-01
97.419800	0.599630	dec_social_accept_low	0.599630	32.000000	n/a	2	-1.640625e-01	-1.640625e-01
105.070390	1.014890	dec_social_choice	1.014890	32.000000	n/a	8	2.083333e-02	2.083333e-02
105.070390	1.014890	dec_choice	1.014890	32.000000	n/a	8	2.343750e-02	2.343750e-02
105.070390	1.014890	dec_social_accept	1.014890	32.000000	n/a	8	2.083333e-02	2.083333e-02
105.070390	1.014890	dec_accept	1.014890	32.000000	n/a	8	2.343750e-02	2.343750e-02
105.070390	1.014890	dec_social_high	1.014890	32.000000	n/a	8	2.343750e-02	2.343750e-02
105.070390	1.014890	dec_social_accept_high	1.014890	32.000000	n/a	8	2.343750e-02	2.343750e-02
111.902820	0.883068	dec_social_choice	0.883068	16.000000	n/a	1	-1.666667e-01	-1.666667e-01
111.902820	0.883068	dec_choice	0.883068	16.000000	n/a	1	-1.640625e-01	-1.640625e-01
111.902820	0.883068	dec_social_accept	0.883068	16.000000	n/a	1	-1.666667e-01	-1.666667e-01
111.902820	0.883068	dec_accept	0.883068	16.000000	n/a	1	-1.640625e-01	-1.640625e-01
111.902820	0.883068	dec_social_accept_low	0.883068	16.000000	n/a	1	-1.640625e-01	-1.640625e-01
119.552920	0.733032	dec_nonsocial_choice	0.733032	16.000000	n/a	1	-1.666667e-01	-1.666667e-01
119.552920	0.733032	dec_choice	0.733032	16.000000	n/a	1	-1.692708e-01	-1.692708e-01
119.552920	0.733032	dec_nonsocial_accept	0.733032	16.000000	n/a	1	-1.666667e-01	-1.666667e-01
119.552920	0.733032	dec_accept	0.733032	16.000000	n/a	1	-1.692708e-01	-1.692708e-01
119.552920	0.733032	dec_nonsocial_accept_low	0.733032	16.000000	n/a	1	-1.640625e-01	-1.640625e-01
126.386030	0.733284	dec_nonsocial_choice	0.733284	32.000000	n/a	2	-1.666667e-01	-1.666667e-01
126.386030	0.733284	dec_choice	0.733284	32.000000	n/a	2	-1.692708e-01	-1.692708e-01
126.386030	0.733284	dec_nonsocial_accept	0.733284	32.000000	n/a	2	-1.666667e-01	-1.666667e-01
126.386030	0.733284	dec_accept	0.733284	32.000000	n/a	2	-1.692708e-01	-1.692708e-01
126.386030	0.733284	dec_nonsocial_low	0.733284	32.000000	n/a	2	-1.692708e-01	-1.692708e-01
126.386030	0.733284	dec_nonsocial_accept_low	0.733284	32.000000	n/a	2	-1.692708e-01	-1.692708e-01
133.218400	0.817874	dec_social_choice	0.817874	32.000000	n/a	3	-1.354167e-01	-1.354167e-01
133.218400	0.817874	dec_choice	0.817874	32.000000	n/a	3	-1.328125e-01	-1.328125e-01
133.218400	0.817874	dec_social_accept	0.817874	32.000000	n/a	3	-1.354167e-01	-1.354167e-01
133.218400	0.817874	dec_accept	0.817874	32.000000	n/a	3	-1.328125e-01	-1.328125e-01
133.218400	0.817874	dec_social_low	0.817874	32.000000	n/a	3	-1.328125e-01	-1.328125e-01
133.218400	0.817874	dec_social_accept_low	0.817874	32.000000	n/a	3	-1.328125e-01	-1.328125e-01
140.053540	0.781995	dec_nonsocial_choice	0.781995	32.000000	n/a	16	2.708333e-01	2.708333e-01
140.053540	0.781995	dec_choice	0.781995	32.000000	n/a	16	2.682292e-01	2.682292e-01
140.053540	0.781995	dec_nonsocial_accept	0.781995	32.000000	n/a	16	2.708333e-01	2.708333e-01
140.053540	0.781995	dec_accept	0.781995	32.000000	n/a	16	2.682292e-01	2.682292e-01
140.053540	0.781995	dec_nonsocial_accept_high	0.781995	32.000000	n/a	16	2.734375e-01	2.734375e-01
149.319530	0.749415	dec_nonsocial_choice	0.749415	16.000000	n/a	1	-1.666667e-01	-1.666667e-01
149.319530	0.749415	dec_choice	0.749415	16.000000	n/a	1	-1.692708e-01	-1.692708e-01
149.319530	0.749415	dec_nonsocial_accept	0.749415	16.000000	n/a	1	-1.666667e-01	-1.666667e-01
149.319530	0.749415	dec_accept	0.749415	16.000000	n/a	1	-1.692708e-01	-1.692708e-01
149.319530	0.749415	dec_nonsocial_accept_low	0.749415	16.000000	n/a	1	-1.640625e-01	-1.640625e-01
156.968980	0.716929	dec_social_choice	0.716929	32.000000	n/a	3	-1.354167e-01	-1.354167e-01
156.968980	0.716929	dec_choice	0.716929	32.000000	n/a	3	-1.328125e-01	-1.328125e-01
156.968980	0.716929	dec_social_accept	0.716929	32.000000	n/a	3	-1.354167e-01	-1.354167e-01
156.968980	0.716929	dec_accept	0.716929	32.000000	n/a	3	-1.328125e-01	-1.328125e-01
156.968980	0.716929	dec_social_accept_low	0.716929	32.000000	n/a	3	-1.328125e-01	-1.328125e-01
163.802960	0.882849	dec_social_choice	0.882849	32.000000	n/a	3	-1.354167e-01	-1.354167e-01
163.802960	0.882849	dec_choice	0.882849	32.000000	n/a	3	-1.328125e-01	-1.328125e-01
163.802960	0.882849	dec_social_accept	0.882849	32.000000	n/a	3	-1.354167e-01	-1.354167e-01
163.802960	0.882849	dec_accept	0.882849	32.000000	n/a	3	-1.328125e-01	-1.328125e-01
163.802960	0.882849	dec_social_low	0.882849	32.000000	n/a	3	-1.328125e-01	-1.328125e-01
163.802960	0.882849	dec_social_accept_low	0.882849	32.000000	n/a	3	-1.328125e-01	-1.328125e-01
170.634980	0.684063	dec_social_choice	0.684063	32.000000	n/a	8	2.083333e-02	2.083333e-02
170.634980	0.684063	dec_choice	0.684063	32.000000	n/a	8	2.343750e-02	2.343750e-02
170.634980	0.684063	dec_social_accept	0.684063	32.000000	n/a	8	2.083333e-02	2.083333e-02
170.634980	0.684063	dec_accept	0.684063	32.000000	n/a	8	2.343750e-02	2.343750e-02
170.634980	0.684063	dec_social_accept_high	0.684063	32.000000	n/a	8	2.343750e-02	2.343750e-02
177.469990	0.632890	dec_nonsocial_choice	0.632890	16.000000	n/a	8	2.708333e-01	2.708333e-01
177.469990	0.632890	dec_choice	0.632890	16.000000	n/a	8	2.682292e-01	2.682292e-01
177.469990	0.632890	dec_nonsocial_accept	0.632890	16.000000	n/a	8	2.708333e-01	2.708333e-01
177.469990	0.632890	dec_accept	0.632890	16.000000	n/a	8	2.682292e-01	2.682292e-01
177.469990	0.632890	dec_nonsocial_accept_high	0.632890	16.000000	n/a	8	2.734375e-01	2.734375e-01
184.302700	1.115877	dec_nonsocial_choice	1.115877	16.000000	n/a	2	-1.041667e-01	-1.041667e-01
184.302700	1.115877	dec_choice	1.115877	16.000000	n/a	2	-1.067708e-01	-1.067708e-01
184.302700	1.115877	dec_nonsocial_accept	1.115877	16.000000	n/a	2	-1.041667e-01	-1.041667e-01
184.302700	1.115877	dec_accept	1.115877	16.000000	n/a	2	-1.067708e-01	-1.067708e-01
184.302700	1.115877	dec_nonsocial_low	1.115877	16.000000	n/a	2	-1.067708e-01	-1.067708e-01
184.302700	1.115877	dec_nonsocial_accept_low	1.115877	16.000000	n/a	2	-1.067708e-01	-1.067708e-01
191.953120	0.865703	dec_social_choice	0.865703	32.000000	n/a	2	-1.666667e-01	-1.666667e-01
191.953120	0.865703	dec_choice	0.865703	32.000000	n/a	2	-1.640625e-01	-1.640625e-01
191.953120	0.865703	dec_social_accept	0.865703	32.000000	n/a	2	-1.666667e-01	-1.666667e-01
191.953120	0.865703	dec_accept	0.865703	32.000000	n/a	2	-1.640625e-01	-1.640625e-01
191.953120	0.865703	dec_social_accept_low	0.865703	32.000000	n/a	2	-1.640625e-01	-1.640625e-01
204.436680	0.782473	dec_social_choice	0.782473	32.000000	n/a	2	-1.666667e-01	-1.666667e-01
204.436680	0.782473	dec_choice	0.782473	32.000000	n/a	2	-1.640625e-01	-1.640625e-01
204.436680	0.782473	dec_social_accept	0.782473	32.000000	n/a	2	-1.666667e-01	-1.666667e-01
204.436680	0.782473	dec_accept	0.782473	32.000000	n/a	2	-1.640625e-01	-1.640625e-01
204.436680	0.782473	dec_social_accept_low	0.782473	32.000000	n/a	2	-1.640625e-01	-1.640625e-01
212.085770	0.866163	dec_nonsocial_choice	0.866163	32.000000	n/a	3	-1.354167e-01	-1.354167e-01
212.085770	0.866163	dec_choice	0.866163	32.000000	n/a	3	-1.380208e-01	-1.380208e-01
212.085770	0.866163	dec_nonsocial_accept	0.866163	32.000000	n/a	3	-1.354167e-01	-1.354167e-01
212.085770	0.866163	dec_accept	0.866163	32.000000	n/a	3	-1.380208e-01	-1.380208e-01
212.085770	0.866163	dec_nonsocial_low	0.866163	32.000000	n/a	3	-1.380208e-01	-1.380208e-01
212.085770	0.866163	dec_nonsocial_accept_low	0.866163	32.000000	n/a	3	-1.380208e-01	-1.380208e-01
219.735900	1.067290	dec_nonsocial_choice	1.067290	16.000000	n/a	1	-1.666667e-01	-1.666667e-01
219.735900	1.067290	dec_choice	1.067290	16.000000	n/a	1	-1.692708e-01	-1.692708e-01
219.735900	1.067290	dec_nonsocial_accept	1.067290	16.000000	n/a	1	-1.666667e-01	-1.666667e-01
219.735900	1.067290	dec_accept	1.067290	16.000000	n/a	1	-1.692708e-01	-1.692708e-01
219.735900	1.067290	dec_nonsocial_low	1.067290	16.000000	n/a	1	-1.692708e-01	-1.692708e-01
219.735900	1.067290	dec_nonsocial_accept_low	1.067290	16.000000	n/a	1	-1.692708e-01	-1.692708e-01
226.568980	0.999755	dec_social_choice	0.999755	32.000000	n/a	16	2.708333e-01	2.708333e-01
226.568980	0.999755	dec_choice	0.999755	32.000000	n/a	16	2.734375e-01	2.734375e-01
226.568980	0.999755	dec_social_accept	0.999755	32.000000	n/a	16	2.708333e-01	2.708333e-01
226.568980	0.999755	dec_accept	0.999755	32.000000	n/a	16	2.734375e-01	2.734375e-01
226.568980	0.999755	dec_social_high	0.999755	32.000000	n/a	16	2.734375e-01	2.734375e-01
226.568980	0.999755	dec_social_accept_high	0.999755	32.000000	n/a	16	2.734375e-01	2.734375e-01
233.402970	0.649338	dec_social_choice	0.649338	32.000000	n/a	3	-1.354167e-01	-1.354167e-01
233.402970	0.649338	dec_choice	0.649338	32.000000	n/a	3	-1.328125e-01	-1.328125e-01
233.402970	0.649338	dec_social_accept	0.649338	32.000000	n/a	3	-1.354167e-01	-1.354167e-01
233.402970	0.649338	dec_accept	0.649338	32.000000	n/a	3	-1.328125e-01	-1.328125e-01
233.402970	0.649338	dec_social_accept_low	0.649338	32.000000	n/a	3	-1.328125e-01	-1.328125e-01
242.652900	0.733030	dec_social_choice	0.733030	16.000000	n/a	8	2.708333e-01	2.708333e-01
242.652900	0.733030	dec_choice	0.733030	16.000000	n/a	8	2.734375e-01	2.734375e-01
242.652900	0.733030	dec_social_accept	0.733030	16.000000	n/a	8	2.708333e-01	2.708333e-01
242.652900	0.733030	dec_accept	0.733030	16.000000	n/a	8	2.734375e-01	2.734375e-01
242.652900	0.733030	dec_social_accept_high	0.733030	16.000000	n/a	8	2.734375e-01	2.734375e-01
251.919940	1.049068	dec_nonsocial_choice	1.049068	16.000000	n/a	2	-1.041667e-01	-1.041667e-01
251.919940	1.049068	dec_choice	1.049068	16.000000	n/a	2	-1.067708e-01	-1.067708e-01
251.919940	1.049068	dec_nonsocial_accept	1.049068	16.000000	n/a	2	-1.041667e-01	-1.041667e-01
251.919940	1.049068	dec_accept	1.049068	16.000000	n/a	2	-1.067708e-01	-1.067708e-01
251.919940	1.049068	dec_nonsocial_low	1.049068	16.000000	n/a	2	-1.067708e-01	-1.067708e-01
251.919940	1.049068	dec_nonsocial_accept_low	1.049068	16.000000	n/a	2	-1.067708e-01	-1.067708e-01
258.751900	0.666522	dec_nonsocial_choice	0.666522	32.000000	n/a	8	2.083333e-02	2.083333e-02
258.751900	0.666522	dec_choice	0.666522	32.000000	n/a	8	1.822917e-02	1.822917e-02
258.751900	0.666522	dec_nonsocial_accept	0.666522	32.000000	n/a	8	2.083333e-02	2.083333e-02
258.751900	0.666522	dec_accept	0.666522	32.000000	n/a	8	1.822917e-02	1.822917e-02
258.751900	0.666522	dec_nonsocial_accept_high	0.666522	32.000000	n/a	8	2.343750e-02	2.343750e-02
269.619700	0.882658	dec_nonsocial_choice	0.882658	32.000000	n/a	2	-1.666667e-01	-1.666667e-01
269.619700	0.882658	dec_choice	0.882658	32.000000	n/a	2	-1.692708e-01	-1.692708e-01
269.619700	0.882658	dec_nonsocial_accept	0.882658	32.000000	n/a	2	-1.666667e-01	-1.666667e-01
269.619700	0.882658	dec_accept	0.882658	32.000000	n/a	2	-1.692708e-01	-1.692708e-01
269.619700	0.882658	dec_nonsocial_low	0.882658	32.000000	n/a	2	-1.692708e-01	-1.692708e-01
269.619700	0.882658	dec_nonsocial_accept_low	0.882658	32.000000	n/a	2	-1.692708e-01	-1.692708e-01
276.452240	0.783747	dec_nonsocial_choice	0.783747	32.000000	n/a	3	-1.354167e-01	-1.354167e-01
276.452240	0.783747	dec_choice	0.783747	32.000000	n/a	3	-1.380208e-01	-1.380208e-01
276.452240	0.783747	dec_nonsocial_accept	0.783747	32.000000	n/a	3	-1.354167e-01	-1.354167e-01
276.452240	0.783747	dec_accept	0.783747	32.000000	n/a	3	-1.380208e-01	-1.380208e-01
276.452240	0.783747	dec_nonsocial_accept_low	0.783747	32.000000	n/a	3	-1.328125e-01	-1.328125e-01
283.285800	0.733424	dec_social_choice	0.733424	32.000000	n/a	2	-1.666667e-01	-1.666667e-01
283.285800	0.733424	dec_choice	0.733424	32.000000	n/a	2	-1.640625e-01	-1.640625e-01
283.285800	0.733424	dec_social_accept	0.733424	32.000000	n/a	2	-1.666667e-01	-1.666667e-01
283.285800	0.733424	dec_accept	0.733424	32.000000	n/a	2	-1.640625e-01	-1.640625e-01
283.285800	0.733424	dec_social_accept_low	0.733424	32.000000	n/a	2	-1.640625e-01	-1.640625e-01
290.118900	0.832728	dec_nonsocial_choice	0.832728	32.000000	n/a	8	2.083333e-02	2.083333e-02
290.118900	0.832728	dec_choice	0.832728	32.000000	n/a	8	1.822917e-02	1.822917e-02
290.118900	0.832728	dec_nonsocial_accept	0.832728	32.000000	n/a	8	2.083333e-02	2.083333e-02
290.118900	0.832728	dec_accept	0.832728	32.000000	n/a	8	1.822917e-02	1.822917e-02
290.118900	0.832728	dec_nonsocial_high	0.832728	32.000000	n/a	8	1.822917e-02	1.822917e-02
290.118900	0.832728	dec_nonsocial_accept_high	0.832728	32.000000	n/a	8	1.822917e-02	1.822917e-02
297.769840	1.082256	dec_social_choice	1.082256	32.000000	n/a	8	2.083333e-02	2.083333e-02
297.769840	1.082256	dec_choice	1.082256	32.000000	n/a	8	2.343750e-02	2.343750e-02
297.769840	1.082256	dec_social_accept	1.082256	32.000000	n/a	8	2.083333e-02	2.083333e-02
297.769840	1.082256	dec_accept	1.082256	32.000000	n/a	8	2.343750e-02	2.343750e-02
297.769840	1.082256	dec_social_high	1.082256	32.000000	n/a	8	2.343750e-02	2.343750e-02
297.769840	1.082256	dec_social_accept_high	1.082256	32.000000	n/a	8	2.343750e-02	2.343750e-02
304.601870	0.900487	dec_social_choice	0.900487	16.000000	n/a	4	2.083333e-02	2.083333e-02
304.601870	0.900487	dec_choice	0.900487	16.000000	n/a	4	2.343750e-02	2.343750e-02
304.601870	0.900487	dec_social_accept	0.900487	16.000000	n/a	4	2.083333e-02	2.083333e-02
304.601870	0.900487	dec_accept	0.900487	16.000000	n/a	4	2.343750e-02	2.343750e-02
304.601870	0.900487	dec_social_accept_high	0.900487	16.000000	n/a	4	2.343750e-02	2.343750e-02
312.252260	0.966421	dec_social_choice	0.966421	32.000000	n/a	3	-1.354167e-01	-1.354167e-01
312.252260	0.966421	dec_choice	0.966421	32.000000	n/a	3	-1.328125e-01	-1.328125e-01
312.252260	0.966421	dec_social_accept	0.966421	32.000000	n/a	3	-1.354167e-01	-1.354167e-01
312.252260	0.966421	dec_accept	0.966421	32.000000	n/a	3	-1.328125e-01	-1.328125e-01
312.252260	0.966421	dec_social_accept_low	0.966421	32.000000	n/a	3	-1.328125e-01	-1.328125e-01
319.085270	0.850025	dec_social_choice	0.850025	16.000000	n/a	8	2.708333e-01	2.708333e-01
319.085270	0.850025	dec_choice	0.850025	16.000000	n/a	8	2.734375e-01	2.734375e-01
319.085270	0.850025	dec_social_accept	0.850025	16.000000	n/a	8	2.708333e-01	2.708333e-01
319.085270	0.850025	dec_accept	0.850025	16.000000	n/a	8	2.734375e-01	2.734375e-01
319.085270	0.850025	dec_social_high	0.850025	16.000000	n/a	8	2.734375e-01	2.734375e-01
319.085270	0.850025	dec_social_accept_high	0.850025	16.000000	n/a	8	2.734375e-01	2.734375e-01
325.917880	0.783677	dec_social_choice	0.783677	32.000000	n/a	3	-1.354167e-01	-1.354167e-01
325.917880	0.783677	dec_choice	0.783677	32.000000	n/a	3	-1.328125e-01	-1.328125e-01
325.917880	0.783677	dec_social_accept	0.783677	32.000000	n/a	3	-1.354167e-01	-1.354167e-01
325.917880	0.783677	dec_accept	0.783677	32.000000	n/a	3	-1.328125e-01	-1.328125e-01
325.917880	0.783677	dec_social_low	0.783677	32.000000	n/a	3	-1.328125e-01	-1.328125e-01
325.917880	0.783677	dec_social_accept_low	0.783677	32.000000	n/a	3	-1.328125e-01	-1.328125e-01
333.569000	0.682450	dec_social_choice	0.682450	32.000000	n/a	8	2.083333e-02	2.083333e-02
333.569000	0.682450	dec_choice	0.682450	32.000000	n/a	8	2.343750e-02	2.343750e-02
333.569000	0.682450	dec_social_accept	0.682450	32.000000	n/a	8	2.083333e-02	2.083333e-02
333.569000	0.682450	dec_accept	0.682450	32.000000	n/a	8	2.343750e-02	2.343750e-02
333.569000	0.682450	dec_social_high	0.682450	32.000000	n/a	8	2.343750e-02	2.343750e-02
333.569000	0.682450	dec_social_accept_high	0.682450	32.000000	n/a	8	2.343750e-02	2.343750e-02
341.218300	0.950323	dec_nonsocial_choice	0.950323	32.000000	n/a	8	2.083333e-02	2.083333e-02
341.218300	0.950323	dec_choice	0.950323	32.000000	n/a	8	1.822917e-02	1.822917e-02
341.218300	0.950323	dec_nonsocial_accept	0.950323	32.000000	n/a	8	2.083333e-02	2.083333e-02
341.218300	0.950323	dec_accept	0.950323	32.000000	n/a	8	1.822917e-02	1.822917e-02
341.218300	0.950323	dec_nonsocial_high	0.950323	32.000000	n/a	8	1.822917e-02	1.822917e-02
341.218300	0.950323	dec_nonsocial_accept_high	0.950323	32.000000	n/a	8	1.822917e-02	1.822917e-02
348.868870	0.849749	dec_nonsocial_choice	0.849749	16.000000	n/a	8	2.708333e-01	2.708333e-01
348.868870	0.849749	dec_choice	0.849749	16.000000	n/a	8	2.682292e-01	2.682292e-01
348.868870	0.849749	dec_nonsocial_accept	0.849749	16.000000	n/a	8	2.708333e-01	2.708333e-01
348.868870	0.849749	dec_accept	0.849749	16.000000	n/a	8	2.682292e-01	2.682292e-01
348.868870	0.849749	dec_nonsocial_accept_high	0.849749	16.000000	n/a	8	2.734375e-01	2.734375e-01
358.118740	0.833221	dec_nonsocial_choice	0.833221	32.000000	n/a	16	2.708333e-01	2.708333e-01
358.118740	0.833221	dec_choice	0.833221	32.000000	n/a	16	2.682292e-01	2.682292e-01
358.118740	0.833221	dec_nonsocial_accept	0.833221	32.000000	n/a	16	2.708333e-01	2.708333e-01
358.118740	0.833221	dec_accept	0.833221	32.000000	n/a	16	2.682292e-01	2.682292e-01
358.118740	0.833221	dec_nonsocial_accept_high	0.833221	32.000000	n/a	16	2.734375e-01	2.734375e-01
368.985720	0.749381	dec_social_choice	0.749381	32.000000	n/a	16	2.708333e-01	2.708333e-01
368.985720	0.749381	dec_choice	0.749381	32.000000	n/a	16	2.734375e-01	2.734375e-01
368.985720	0.749381	dec_social_accept	0.749381	32.000000	n/a	16	2.708333e-01	2.708333e-01
368.985720	0.749381	dec_accept	0.749381	32.000000	n/a	16	2.734375e-01	2.734375e-01
368.985720	0.749381	dec_social_high	0.749381	32.000000	n/a	16	2.734375e-01	2.734375e-01
368.985720	0.749381	dec_social_accept_high	0.749381	32.000000	n/a	16	2.734375e-01	2.734375e-01
