onset	duration	trial_type	response_time	Endowment	Endowment_pmod	Decision	Decision_pmod	Offer_pmod
4.624602	2	cue_social	n/a	32	5	n/a	n/a	n/a
4.624602	2	cue_social_high	n/a	32	9	n/a	n/a	n/a
12.151352	2	cue_nonsocial	n/a	16	-7	n/a	n/a	n/a
12.151352	2	cue_nonsocial_low	n/a	16	-11	n/a	n/a	n/a
19.804388	2	cue_nonsocial	n/a	16	-7	n/a	n/a	n/a
19.804388	2	cue_nonsocial_low	n/a	16	-11	n/a	n/a	n/a
27.558157	2	cue_social	n/a	16	-11	n/a	n/a	n/a
27.558157	2	cue_social_low	n/a	16	-7	n/a	n/a	n/a
34.268158	2	cue_nonsocial	n/a	32	9	n/a	n/a	n/a
34.268158	2	cue_nonsocial_high	n/a	32	5	n/a	n/a	n/a
43.625940	2	cue_social	n/a	32	5	n/a	n/a	n/a
43.625940	2	cue_social_high	n/a	32	9	n/a	n/a	n/a
50.351720	2	cue_nonsocial	n/a	16	-7	n/a	n/a	n/a
50.351720	2	cue_nonsocial_low	n/a	16	-11	n/a	n/a	n/a
57.287220	2	cue_social	n/a	32	5	n/a	n/a	n/a
57.287220	2	cue_social_high	n/a	32	9	n/a	n/a	n/a
69.676780	2	cue_social	n/a	32	5	n/a	n/a	n/a
69.676780	2	cue_social_high	n/a	32	9	n/a	n/a	n/a
76.503490	2	cue_nonsocial	n/a	16	-7	n/a	n/a	n/a
76.503490	2	cue_nonsocial_low	n/a	16	-11	n/a	n/a	n/a
85.751280	2	cue_nonsocial	n/a	16	-7	n/a	n/a	n/a
85.751280	2	cue_nonsocial_low	n/a	16	-11	n/a	n/a	n/a
93.400390	2	cue_nonsocial	n/a	32	9	n/a	n/a	n/a
93.400390	2	cue_nonsocial_high	n/a	32	5	n/a	n/a	n/a
100.351040	2	cue_social	n/a	32	5	n/a	n/a	n/a
100.351040	2	cue_social_high	n/a	32	9	n/a	n/a	n/a
107.202890	2	cue_social	n/a	32	5	n/a	n/a	n/a
107.202890	2	cue_social_high	n/a	32	9	n/a	n/a	n/a
116.336120	2	cue_nonsocial	n/a	32	9	n/a	n/a	n/a
116.336120	2	cue_nonsocial_high	n/a	32	5	n/a	n/a	n/a
123.984170	2	cue_nonsocial	n/a	32	9	n/a	n/a	n/a
123.984170	2	cue_nonsocial_high	n/a	32	5	n/a	n/a	n/a
130.940190	2	cue_social	n/a	32	5	n/a	n/a	n/a
130.940190	2	cue_social_high	n/a	32	9	n/a	n/a	n/a
140.067320	2	cue_nonsocial	n/a	16	-7	n/a	n/a	n/a
140.067320	2	cue_nonsocial_low	n/a	16	-11	n/a	n/a	n/a
149.450100	2	cue_social	n/a	32	5	n/a	n/a	n/a
149.450100	2	cue_social_high	n/a	32	9	n/a	n/a	n/a
157.102420	2	cue_social	n/a	32	5	n/a	n/a	n/a
157.102420	2	cue_social_high	n/a	32	9	n/a	n/a	n/a
163.923320	2	cue_social	n/a	32	5	n/a	n/a	n/a
163.923320	2	cue_social_high	n/a	32	9	n/a	n/a	n/a
171.467940	2	cue_nonsocial	n/a	32	9	n/a	n/a	n/a
171.467940	2	cue_nonsocial_high	n/a	32	5	n/a	n/a	n/a
179.117860	2	cue_nonsocial	n/a	16	-7	n/a	n/a	n/a
179.117860	2	cue_nonsocial_low	n/a	16	-11	n/a	n/a	n/a
186.053050	2	cue_social	n/a	16	-11	n/a	n/a	n/a
186.053050	2	cue_social_low	n/a	16	-7	n/a	n/a	n/a
192.784650	2	cue_nonsocial	n/a	32	9	n/a	n/a	n/a
192.784650	2	cue_nonsocial_high	n/a	32	5	n/a	n/a	n/a
199.618120	2	cue_nonsocial	n/a	16	-7	n/a	n/a	n/a
199.618120	2	cue_nonsocial_low	n/a	16	-11	n/a	n/a	n/a
207.268570	2	cue_nonsocial	n/a	32	9	n/a	n/a	n/a
207.268570	2	cue_nonsocial_high	n/a	32	5	n/a	n/a	n/a
218.154420	2	cue_social	n/a	32	5	n/a	n/a	n/a
218.154420	2	cue_social_high	n/a	32	9	n/a	n/a	n/a
229.001160	2	cue_nonsocial	n/a	16	-7	n/a	n/a	n/a
229.001160	2	cue_nonsocial_low	n/a	16	-11	n/a	n/a	n/a
235.834000	2	cue_nonsocial	n/a	16	-7	n/a	n/a	n/a
235.834000	2	cue_nonsocial_low	n/a	16	-11	n/a	n/a	n/a
243.484910	2	cue_nonsocial	n/a	32	9	n/a	n/a	n/a
243.484910	2	cue_nonsocial_high	n/a	32	5	n/a	n/a	n/a
254.374420	2	cue_social	n/a	16	-11	n/a	n/a	n/a
254.374420	2	cue_social_low	n/a	16	-7	n/a	n/a	n/a
261.193200	2	cue_social	n/a	32	5	n/a	n/a	n/a
261.193200	2	cue_social_high	n/a	32	9	n/a	n/a	n/a
268.017880	2	cue_nonsocial	n/a	16	-7	n/a	n/a	n/a
268.017880	2	cue_nonsocial_low	n/a	16	-11	n/a	n/a	n/a
274.958040	2	cue_social	n/a	32	5	n/a	n/a	n/a
274.958040	2	cue_social_high	n/a	32	9	n/a	n/a	n/a
284.139560	2	cue_social	n/a	32	5	n/a	n/a	n/a
284.139560	2	cue_social_high	n/a	32	9	n/a	n/a	n/a
290.964540	2	cue_social	n/a	32	5	n/a	n/a	n/a
290.964540	2	cue_social_high	n/a	32	9	n/a	n/a	n/a
297.783700	2	cue_nonsocial	n/a	32	9	n/a	n/a	n/a
297.783700	2	cue_nonsocial_high	n/a	32	5	n/a	n/a	n/a
304.618960	2	cue_nonsocial	n/a	16	-7	n/a	n/a	n/a
304.618960	2	cue_nonsocial_low	n/a	16	-11	n/a	n/a	n/a
311.596950	2	cue_social	n/a	16	-11	n/a	n/a	n/a
311.596950	2	cue_social_low	n/a	16	-7	n/a	n/a	n/a
319.129880	2	cue_social	n/a	32	5	n/a	n/a	n/a
319.129880	2	cue_social_high	n/a	32	9	n/a	n/a	n/a
328.351200	2	cue_nonsocial	n/a	32	9	n/a	n/a	n/a
328.351200	2	cue_nonsocial_high	n/a	32	5	n/a	n/a	n/a
335.193820	2	cue_social	n/a	16	-11	n/a	n/a	n/a
335.193820	2	cue_social_low	n/a	16	-7	n/a	n/a	n/a
342.043800	2	cue_social	n/a	16	-11	n/a	n/a	n/a
342.043800	2	cue_social_low	n/a	16	-7	n/a	n/a	n/a
349.670350	2	cue_social	n/a	32	5	n/a	n/a	n/a
349.670350	2	cue_social_high	n/a	32	9	n/a	n/a	n/a
356.501600	2	cue_social	n/a	16	-11	n/a	n/a	n/a
356.501600	2	cue_social_low	n/a	16	-7	n/a	n/a	n/a
364.133150	2	cue_nonsocial	n/a	16	-7	n/a	n/a	n/a
364.133150	2	cue_nonsocial_low	n/a	16	-11	n/a	n/a	n/a
370.967130	2	cue_nonsocial	n/a	32	9	n/a	n/a	n/a
370.967130	2	cue_nonsocial_high	n/a	32	5	n/a	n/a	n/a
6.506959	1.916421	dec_social_choice	1.916421	32.000000	n/a	0	0	-2.304688e-01
6.506959	1.916421	dec_choice	1.916421	32.000000	n/a	0	0	-2.291667e-01
6.506959	1.916421	dec_social_reject	1.916421	32.000000	n/a	0	0	-2.309783e-02
6.506959	1.916421	dec_reject	1.916421	32.000000	n/a	0	0	-2.083333e-02
6.506959	1.916421	dec_social_low	1.916421	32.000000	n/a	0	-2.291667e-01	-2.291667e-01
6.506959	1.916421	dec_social_reject_low	1.916421	32.000000	n/a	2	-1.666667e-01	-2.291667e-01
14.156642	1.883327	dec_nonsocial_choice	1.883327	16.000000	n/a	8	2.695312e-01	2.695312e-01
14.156642	1.883327	dec_choice	1.883327	16.000000	n/a	8	2.682292e-01	2.682292e-01
14.156642	1.883327	dec_nonsocial_accept	1.883327	16.000000	n/a	8	1.362500e-01	1.362500e-01
14.156642	1.883327	dec_accept	1.883327	16.000000	n/a	8	1.466346e-01	1.466346e-01
14.156642	1.883327	dec_nonsocial_high	1.883327	16.000000	n/a	8	2.682292e-01	2.682292e-01
14.156642	1.883327	dec_nonsocial_accept_high	1.883327	16.000000	n/a	8	1.466346e-01	1.466346e-01
21.805933	1.684071	dec_nonsocial_choice	1.684071	16.000000	n/a	0	0	-2.304688e-01
21.805933	1.684071	dec_choice	1.684071	16.000000	n/a	0	0	-2.317708e-01
21.805933	1.684071	dec_nonsocial_reject	1.684071	16.000000	n/a	0	0	-2.309783e-02
21.805933	1.684071	dec_reject	1.684071	16.000000	n/a	0	0	-2.556818e-02
21.805933	1.684071	dec_nonsocial_low	1.684071	16.000000	n/a	0	-2.317708e-01	-2.317708e-01
21.805933	1.684071	dec_nonsocial_reject_low	1.684071	16.000000	n/a	1	-2.556818e-02	-8.806818e-02
29.439522	1.283968	dec_social_choice	1.283968	16.000000	n/a	8	2.695312e-01	2.695312e-01
29.439522	1.283968	dec_choice	1.283968	16.000000	n/a	8	2.708333e-01	2.708333e-01
29.439522	1.283968	dec_social_accept	1.283968	16.000000	n/a	8	1.362500e-01	1.362500e-01
29.439522	1.283968	dec_accept	1.283968	16.000000	n/a	8	1.250000e-01	1.250000e-01
29.439522	1.283968	dec_social_high	1.283968	16.000000	n/a	8	2.708333e-01	2.708333e-01
29.439522	1.283968	dec_social_accept_high	1.283968	16.000000	n/a	8	2.708333e-01	2.708333e-01
36.273804	2.383051	dec_nonsocial_choice	2.383051	32.000000	n/a	8	1.953125e-02	1.953125e-02
36.273804	2.383051	dec_choice	2.383051	32.000000	n/a	8	1.822917e-02	1.822917e-02
36.273804	2.383051	dec_nonsocial_accept	2.383051	32.000000	n/a	8	-1.137500e-01	-1.137500e-01
36.273804	2.383051	dec_accept	2.383051	32.000000	n/a	8	-1.033654e-01	-1.033654e-01
36.273804	2.383051	dec_nonsocial_high	2.383051	32.000000	n/a	8	1.822917e-02	1.822917e-02
36.273804	2.383051	dec_nonsocial_accept_high	2.383051	32.000000	n/a	8	-1.033654e-01	-1.033654e-01
45.523920	1.849532	dec_social_choice	1.849532	32.000000	n/a	8	1.953125e-02	1.953125e-02
45.523920	1.849532	dec_choice	1.849532	32.000000	n/a	8	2.083333e-02	2.083333e-02
45.523920	1.849532	dec_social_accept	1.849532	32.000000	n/a	8	-1.137500e-01	-1.137500e-01
45.523920	1.849532	dec_accept	1.849532	32.000000	n/a	8	-1.250000e-01	-1.250000e-01
45.523920	1.849532	dec_social_accept_high	1.849532	32.000000	n/a	8	2.083333e-02	2.083333e-02
52.356830	2.716510	dec_nonsocial_choice	2.716510	16.000000	n/a	4	1.953125e-02	1.953125e-02
52.356830	2.716510	dec_choice	2.716510	16.000000	n/a	4	1.822917e-02	1.822917e-02
52.356830	2.716510	dec_nonsocial_accept	2.716510	16.000000	n/a	4	-1.137500e-01	-1.137500e-01
52.356830	2.716510	dec_accept	2.716510	16.000000	n/a	4	-1.033654e-01	-1.033654e-01
52.356830	2.716510	dec_nonsocial_accept_high	2.716510	16.000000	n/a	4	-1.250000e-01	-1.250000e-01
59.189900	1.950162	dec_social_choice	1.950162	32.000000	n/a	0	0	-2.304688e-01
59.189900	1.950162	dec_choice	1.950162	32.000000	n/a	0	0	-2.291667e-01
59.189900	1.950162	dec_social_reject	1.950162	32.000000	n/a	0	0	8.152174e-03
59.189900	1.950162	dec_reject	1.950162	32.000000	n/a	0	0	1.041667e-02
59.189900	1.950162	dec_social_reject_low	1.950162	32.000000	n/a	3	-1.354167e-01	-2.291667e-01
71.674190	1.714988	dec_social_choice	1.714988	32.000000	n/a	0	0	-2.304688e-01
71.674190	1.714988	dec_choice	1.714988	32.000000	n/a	0	0	-2.291667e-01
71.674190	1.714988	dec_social_reject	1.714988	32.000000	n/a	0	0	8.152174e-03
71.674190	1.714988	dec_reject	1.714988	32.000000	n/a	0	0	1.041667e-02
71.674190	1.714988	dec_social_reject_low	1.714988	32.000000	n/a	3	-1.354167e-01	-2.291667e-01
78.506660	1.716778	dec_nonsocial_choice	1.716778	16.000000	n/a	0	0	-2.304688e-01
78.506660	1.716778	dec_choice	1.716778	16.000000	n/a	0	0	-2.317708e-01
78.506660	1.716778	dec_nonsocial_reject	1.716778	16.000000	n/a	0	0	3.940217e-02
78.506660	1.716778	dec_reject	1.716778	16.000000	n/a	0	0	3.693182e-02
78.506660	1.716778	dec_nonsocial_low	1.716778	16.000000	n/a	0	-2.317708e-01	-2.317708e-01
78.506660	1.716778	dec_nonsocial_reject_low	1.716778	16.000000	n/a	2	3.693182e-02	-8.806818e-02
87.756980	1.432705	dec_nonsocial_choice	1.432705	16.000000	n/a	0	0	-2.304688e-01
87.756980	1.432705	dec_choice	1.432705	16.000000	n/a	0	0	-2.317708e-01
87.756980	1.432705	dec_nonsocial_reject	1.432705	16.000000	n/a	0	0	3.940217e-02
87.756980	1.432705	dec_reject	1.432705	16.000000	n/a	0	0	3.693182e-02
87.756980	1.432705	dec_nonsocial_reject_low	1.432705	16.000000	n/a	2	4.166667e-02	-8.333333e-02
95.406850	1.949801	dec_nonsocial_choice	1.949801	32.000000	n/a	0	0	-2.304688e-01
95.406850	1.949801	dec_choice	1.949801	32.000000	n/a	0	0	-2.317708e-01
95.406850	1.949801	dec_nonsocial_reject	1.949801	32.000000	n/a	0	0	-2.309783e-02
95.406850	1.949801	dec_reject	1.949801	32.000000	n/a	0	0	-2.556818e-02
95.406850	1.949801	dec_nonsocial_low	1.949801	32.000000	n/a	0	-2.317708e-01	-2.317708e-01
95.406850	1.949801	dec_nonsocial_reject_low	1.949801	32.000000	n/a	2	-2.556818e-02	-8.806818e-02
102.240326	1.665513	dec_social_choice	1.665513	32.000000	n/a	16	2.695312e-01	2.695312e-01
102.240326	1.665513	dec_choice	1.665513	32.000000	n/a	16	2.708333e-01	2.708333e-01
102.240326	1.665513	dec_social_accept	1.665513	32.000000	n/a	16	1.362500e-01	1.362500e-01
102.240326	1.665513	dec_accept	1.665513	32.000000	n/a	16	1.250000e-01	1.250000e-01
102.240326	1.665513	dec_social_high	1.665513	32.000000	n/a	16	2.708333e-01	2.708333e-01
102.240326	1.665513	dec_social_accept_high	1.665513	32.000000	n/a	16	2.708333e-01	2.708333e-01
109.072890	1.832934	dec_social_choice	1.832934	32.000000	n/a	8	1.953125e-02	1.953125e-02
109.072890	1.832934	dec_choice	1.832934	32.000000	n/a	8	2.083333e-02	2.083333e-02
109.072890	1.832934	dec_social_accept	1.832934	32.000000	n/a	8	-1.137500e-01	-1.137500e-01
109.072890	1.832934	dec_accept	1.832934	32.000000	n/a	8	-1.250000e-01	-1.250000e-01
109.072890	1.832934	dec_social_high	1.832934	32.000000	n/a	8	2.083333e-02	2.083333e-02
109.072890	1.832934	dec_social_accept_high	1.832934	32.000000	n/a	8	2.083333e-02	2.083333e-02
118.340920	1.382254	dec_nonsocial_choice	1.382254	32.000000	n/a	8	1.953125e-02	1.953125e-02
118.340920	1.382254	dec_choice	1.382254	32.000000	n/a	8	1.822917e-02	1.822917e-02
118.340920	1.382254	dec_nonsocial_accept	1.382254	32.000000	n/a	8	-1.137500e-01	-1.137500e-01
118.340920	1.382254	dec_accept	1.382254	32.000000	n/a	8	-1.033654e-01	-1.033654e-01
118.340920	1.382254	dec_nonsocial_accept_high	1.382254	32.000000	n/a	8	-1.250000e-01	-1.250000e-01
125.989750	1.366112	dec_nonsocial_choice	1.366112	32.000000	n/a	16	2.695312e-01	2.695312e-01
125.989750	1.366112	dec_choice	1.366112	32.000000	n/a	16	2.682292e-01	2.682292e-01
125.989750	1.366112	dec_nonsocial_accept	1.366112	32.000000	n/a	16	1.362500e-01	1.362500e-01
125.989750	1.366112	dec_accept	1.366112	32.000000	n/a	16	1.466346e-01	1.466346e-01
125.989750	1.366112	dec_nonsocial_accept_high	1.366112	32.000000	n/a	16	1.250000e-01	1.250000e-01
132.822540	1.600062	dec_social_choice	1.600062	32.000000	n/a	16	2.695312e-01	2.695312e-01
132.822540	1.600062	dec_choice	1.600062	32.000000	n/a	16	2.708333e-01	2.708333e-01
132.822540	1.600062	dec_social_accept	1.600062	32.000000	n/a	16	1.362500e-01	1.362500e-01
132.822540	1.600062	dec_accept	1.600062	32.000000	n/a	16	1.250000e-01	1.250000e-01
132.822540	1.600062	dec_social_high	1.600062	32.000000	n/a	16	2.708333e-01	2.708333e-01
132.822540	1.600062	dec_social_accept_high	1.600062	32.000000	n/a	16	2.708333e-01	2.708333e-01
142.073090	1.616306	dec_nonsocial_choice	1.616306	16.000000	n/a	4	1.953125e-02	1.953125e-02
142.073090	1.616306	dec_choice	1.616306	16.000000	n/a	4	1.822917e-02	1.822917e-02
142.073090	1.616306	dec_nonsocial_accept	1.616306	16.000000	n/a	4	-1.137500e-01	-1.137500e-01
142.073090	1.616306	dec_accept	1.616306	16.000000	n/a	4	-1.033654e-01	-1.033654e-01
142.073090	1.616306	dec_nonsocial_high	1.616306	16.000000	n/a	4	1.822917e-02	1.822917e-02
142.073090	1.616306	dec_nonsocial_accept_high	1.616306	16.000000	n/a	4	-1.033654e-01	-1.033654e-01
151.339920	1.350138	dec_social_choice	1.350138	32.000000	n/a	0	0	-2.304688e-01
151.339920	1.350138	dec_choice	1.350138	32.000000	n/a	0	0	-2.291667e-01
151.339920	1.350138	dec_social_reject	1.350138	32.000000	n/a	0	0	8.152174e-03
151.339920	1.350138	dec_reject	1.350138	32.000000	n/a	0	0	1.041667e-02
151.339920	1.350138	dec_social_reject_low	1.350138	32.000000	n/a	3	-1.354167e-01	-2.291667e-01
158.990080	1.732951	dec_social_choice	1.732951	32.000000	n/a	0	0	-2.304688e-01
158.990080	1.732951	dec_choice	1.732951	32.000000	n/a	0	0	-2.291667e-01
158.990080	1.732951	dec_social_reject	1.732951	32.000000	n/a	0	0	-2.309783e-02
158.990080	1.732951	dec_reject	1.732951	32.000000	n/a	0	0	-2.083333e-02
158.990080	1.732951	dec_social_low	1.732951	32.000000	n/a	0	-2.291667e-01	-2.291667e-01
158.990080	1.732951	dec_social_reject_low	1.732951	32.000000	n/a	2	-1.666667e-01	-2.291667e-01
165.823910	2.115362	dec_social_choice	2.115362	32.000000	n/a	8	1.953125e-02	1.953125e-02
165.823910	2.115362	dec_choice	2.115362	32.000000	n/a	8	2.083333e-02	2.083333e-02
165.823910	2.115362	dec_social_accept	2.115362	32.000000	n/a	8	-1.137500e-01	-1.137500e-01
165.823910	2.115362	dec_accept	2.115362	32.000000	n/a	8	-1.250000e-01	-1.250000e-01
165.823910	2.115362	dec_social_accept_high	2.115362	32.000000	n/a	8	2.083333e-02	2.083333e-02
173.472960	2.016367	dec_nonsocial_choice	2.016367	32.000000	n/a	0	0	-2.304688e-01
173.472960	2.016367	dec_choice	2.016367	32.000000	n/a	0	0	-2.317708e-01
173.472960	2.016367	dec_nonsocial_reject	2.016367	32.000000	n/a	0	0	8.152174e-03
173.472960	2.016367	dec_reject	2.016367	32.000000	n/a	0	0	5.681818e-03
173.472960	2.016367	dec_nonsocial_low	2.016367	32.000000	n/a	0	-2.317708e-01	-2.317708e-01
173.472960	2.016367	dec_nonsocial_reject_low	2.016367	32.000000	n/a	3	5.681818e-03	-8.806818e-02
181.122560	1.734071	dec_nonsocial_choice	1.734071	16.000000	n/a	0	0	-2.304688e-01
181.122560	1.734071	dec_choice	1.734071	16.000000	n/a	0	0	-2.317708e-01
181.122560	1.734071	dec_nonsocial_reject	1.734071	16.000000	n/a	0	0	-2.309783e-02
181.122560	1.734071	dec_reject	1.734071	16.000000	n/a	0	0	-2.556818e-02
181.122560	1.734071	dec_nonsocial_low	1.734071	16.000000	n/a	0	-2.317708e-01	-2.317708e-01
181.122560	1.734071	dec_nonsocial_reject_low	1.734071	16.000000	n/a	1	-2.556818e-02	-8.806818e-02
187.956120	2.333634	dec_social_choice	2.333634	16.000000	n/a	4	1.953125e-02	1.953125e-02
187.956120	2.333634	dec_choice	2.333634	16.000000	n/a	4	2.083333e-02	2.083333e-02
187.956120	2.333634	dec_social_accept	2.333634	16.000000	n/a	4	-1.137500e-01	-1.137500e-01
187.956120	2.333634	dec_accept	2.333634	16.000000	n/a	4	-1.250000e-01	-1.250000e-01
187.956120	2.333634	dec_social_accept_high	2.333634	16.000000	n/a	4	2.083333e-02	2.083333e-02
194.790400	1.649359	dec_nonsocial_choice	1.649359	32.000000	n/a	8	1.953125e-02	1.953125e-02
194.790400	1.649359	dec_choice	1.649359	32.000000	n/a	8	1.822917e-02	1.822917e-02
194.790400	1.649359	dec_nonsocial_accept	1.649359	32.000000	n/a	8	-1.137500e-01	-1.137500e-01
194.790400	1.649359	dec_accept	1.649359	32.000000	n/a	8	-1.033654e-01	-1.033654e-01
194.790400	1.649359	dec_nonsocial_high	1.649359	32.000000	n/a	8	1.822917e-02	1.822917e-02
194.790400	1.649359	dec_nonsocial_accept_high	1.649359	32.000000	n/a	8	-1.033654e-01	-1.033654e-01
201.622390	1.800707	dec_nonsocial_choice	1.800707	16.000000	n/a	8	2.695312e-01	2.695312e-01
201.622390	1.800707	dec_choice	1.800707	16.000000	n/a	8	2.682292e-01	2.682292e-01
201.622390	1.800707	dec_nonsocial_accept	1.800707	16.000000	n/a	8	1.362500e-01	1.362500e-01
201.622390	1.800707	dec_accept	1.800707	16.000000	n/a	8	1.466346e-01	1.466346e-01
201.622390	1.800707	dec_nonsocial_high	1.800707	16.000000	n/a	8	2.682292e-01	2.682292e-01
201.622390	1.800707	dec_nonsocial_accept_high	1.800707	16.000000	n/a	8	1.466346e-01	1.466346e-01
209.272750	1.483553	dec_nonsocial_choice	1.483553	32.000000	n/a	0	0	-2.304688e-01
209.272750	1.483553	dec_choice	1.483553	32.000000	n/a	0	0	-2.317708e-01
209.272750	1.483553	dec_nonsocial_reject	1.483553	32.000000	n/a	0	0	-2.309783e-02
209.272750	1.483553	dec_reject	1.483553	32.000000	n/a	0	0	-2.556818e-02
209.272750	1.483553	dec_nonsocial_low	1.483553	32.000000	n/a	0	-2.317708e-01	-2.317708e-01
209.272750	1.483553	dec_nonsocial_reject_low	1.483553	32.000000	n/a	2	-2.556818e-02	-8.806818e-02
220.139800	1.482677	dec_social_choice	1.482677	32.000000	n/a	16	2.695312e-01	2.695312e-01
220.139800	1.482677	dec_choice	1.482677	32.000000	n/a	16	2.708333e-01	2.708333e-01
220.139800	1.482677	dec_social_accept	1.482677	32.000000	n/a	16	1.362500e-01	1.362500e-01
220.139800	1.482677	dec_accept	1.482677	32.000000	n/a	16	1.250000e-01	1.250000e-01
220.139800	1.482677	dec_social_high	1.482677	32.000000	n/a	16	2.708333e-01	2.708333e-01
220.139800	1.482677	dec_social_accept_high	1.482677	32.000000	n/a	16	2.708333e-01	2.708333e-01
231.006330	1.683673	dec_nonsocial_choice	1.683673	16.000000	n/a	0	0	-2.304688e-01
231.006330	1.683673	dec_choice	1.683673	16.000000	n/a	0	0	-2.317708e-01
231.006330	1.683673	dec_nonsocial_reject	1.683673	16.000000	n/a	0	0	3.940217e-02
231.006330	1.683673	dec_reject	1.683673	16.000000	n/a	0	0	3.693182e-02
231.006330	1.683673	dec_nonsocial_reject_low	1.683673	16.000000	n/a	2	4.166667e-02	-8.333333e-02
237.839140	1.733822	dec_nonsocial_choice	1.733822	16.000000	n/a	0	0	-2.304688e-01
237.839140	1.733822	dec_choice	1.733822	16.000000	n/a	0	0	-2.317708e-01
237.839140	1.733822	dec_nonsocial_reject	1.733822	16.000000	n/a	0	0	3.940217e-02
237.839140	1.733822	dec_reject	1.733822	16.000000	n/a	0	0	3.693182e-02
237.839140	1.733822	dec_nonsocial_low	1.733822	16.000000	n/a	0	-2.317708e-01	-2.317708e-01
237.839140	1.733822	dec_nonsocial_reject_low	1.733822	16.000000	n/a	2	3.693182e-02	-8.806818e-02
245.489520	2.700103	dec_nonsocial_choice	2.700103	32.000000	n/a	3	-1.367188e-01	-1.367188e-01
245.489520	2.700103	dec_choice	2.700103	32.000000	n/a	3	-1.380208e-01	-1.380208e-01
245.489520	2.700103	dec_nonsocial_accept	2.700103	32.000000	n/a	3	-2.700000e-01	-2.700000e-01
245.489520	2.700103	dec_accept	2.700103	32.000000	n/a	3	-2.596154e-01	-2.596154e-01
245.489520	2.700103	dec_nonsocial_low	2.700103	32.000000	n/a	3	-1.380208e-01	-1.380208e-01
245.489520	2.700103	dec_nonsocial_accept_low	2.700103	32.000000	n/a	3	-2.596154e-01	-2.596154e-01
256.354920	1.518095	dec_social_choice	1.518095	16.000000	n/a	0	0	-2.304688e-01
256.354920	1.518095	dec_choice	1.518095	16.000000	n/a	0	0	-2.291667e-01
256.354920	1.518095	dec_social_reject	1.518095	16.000000	n/a	0	0	3.940217e-02
256.354920	1.518095	dec_reject	1.518095	16.000000	n/a	0	0	4.166667e-02
256.354920	1.518095	dec_social_reject_low	1.518095	16.000000	n/a	2	-1.041667e-01	-2.291667e-01
263.189300	1.400211	dec_social_choice	1.400211	32.000000	n/a	8	1.953125e-02	1.953125e-02
263.189300	1.400211	dec_choice	1.400211	32.000000	n/a	8	2.083333e-02	2.083333e-02
263.189300	1.400211	dec_social_accept	1.400211	32.000000	n/a	8	-1.137500e-01	-1.137500e-01
263.189300	1.400211	dec_accept	1.400211	32.000000	n/a	8	-1.250000e-01	-1.250000e-01
263.189300	1.400211	dec_social_high	1.400211	32.000000	n/a	8	2.083333e-02	2.083333e-02
263.189300	1.400211	dec_social_accept_high	1.400211	32.000000	n/a	8	2.083333e-02	2.083333e-02
270.023700	3.149379	dec_nonsocial_choice	3.149379	16.000000	n/a	0	0	-2.304688e-01
270.023700	3.149379	dec_choice	3.149379	16.000000	n/a	0	0	-2.317708e-01
270.023700	3.149379	dec_nonsocial_reject	3.149379	16.000000	n/a	0	0	-2.309783e-02
270.023700	3.149379	dec_reject	3.149379	16.000000	n/a	0	0	-2.556818e-02
270.023700	3.149379	dec_nonsocial_low	3.149379	16.000000	n/a	0	-2.317708e-01	-2.317708e-01
270.023700	3.149379	dec_nonsocial_reject_low	3.149379	16.000000	n/a	1	-2.556818e-02	-8.806818e-02
276.855960	1.466365	dec_social_choice	1.466365	32.000000	n/a	0	0	-2.304688e-01
276.855960	1.466365	dec_choice	1.466365	32.000000	n/a	0	0	-2.291667e-01
276.855960	1.466365	dec_social_reject	1.466365	32.000000	n/a	0	0	8.152174e-03
276.855960	1.466365	dec_reject	1.466365	32.000000	n/a	0	0	1.041667e-02
276.855960	1.466365	dec_social_reject_low	1.466365	32.000000	n/a	3	-1.354167e-01	-2.291667e-01
286.122830	1.666726	dec_social_choice	1.666726	32.000000	n/a	8	1.953125e-02	1.953125e-02
286.122830	1.666726	dec_choice	1.666726	32.000000	n/a	8	2.083333e-02	2.083333e-02
286.122830	1.666726	dec_social_accept	1.666726	32.000000	n/a	8	-1.137500e-01	-1.137500e-01
286.122830	1.666726	dec_accept	1.666726	32.000000	n/a	8	-1.250000e-01	-1.250000e-01
286.122830	1.666726	dec_social_high	1.666726	32.000000	n/a	8	2.083333e-02	2.083333e-02
286.122830	1.666726	dec_social_accept_high	1.666726	32.000000	n/a	8	2.083333e-02	2.083333e-02
292.956150	1.749330	dec_social_choice	1.749330	32.000000	n/a	0	0	-2.304688e-01
292.956150	1.749330	dec_choice	1.749330	32.000000	n/a	0	0	-2.291667e-01
292.956150	1.749330	dec_social_reject	1.749330	32.000000	n/a	0	0	-2.309783e-02
292.956150	1.749330	dec_reject	1.749330	32.000000	n/a	0	0	-2.083333e-02
292.956150	1.749330	dec_social_low	1.749330	32.000000	n/a	0	-2.291667e-01	-2.291667e-01
292.956150	1.749330	dec_social_reject_low	1.749330	32.000000	n/a	2	-1.666667e-01	-2.291667e-01
299.789700	1.633307	dec_nonsocial_choice	1.633307	32.000000	n/a	16	2.695312e-01	2.695312e-01
299.789700	1.633307	dec_choice	1.633307	32.000000	n/a	16	2.682292e-01	2.682292e-01
299.789700	1.633307	dec_nonsocial_accept	1.633307	32.000000	n/a	16	1.362500e-01	1.362500e-01
299.789700	1.633307	dec_accept	1.633307	32.000000	n/a	16	1.466346e-01	1.466346e-01
299.789700	1.633307	dec_nonsocial_high	1.633307	32.000000	n/a	16	2.682292e-01	2.682292e-01
299.789700	1.633307	dec_nonsocial_accept_high	1.633307	32.000000	n/a	16	1.466346e-01	1.466346e-01
306.622900	1.499659	dec_nonsocial_choice	1.499659	16.000000	n/a	0	0	-2.304688e-01
306.622900	1.499659	dec_choice	1.499659	16.000000	n/a	0	0	-2.317708e-01
306.622900	1.499659	dec_nonsocial_reject	1.499659	16.000000	n/a	0	0	-2.309783e-02
306.622900	1.499659	dec_reject	1.499659	16.000000	n/a	0	0	-2.556818e-02
306.622900	1.499659	dec_nonsocial_low	1.499659	16.000000	n/a	0	-2.317708e-01	-2.317708e-01
306.622900	1.499659	dec_nonsocial_reject_low	1.499659	16.000000	n/a	1	-2.556818e-02	-8.806818e-02
313.455600	1.549962	dec_social_choice	1.549962	16.000000	n/a	0	0	-2.304688e-01
313.455600	1.549962	dec_choice	1.549962	16.000000	n/a	0	0	-2.291667e-01
313.455600	1.549962	dec_social_reject	1.549962	16.000000	n/a	0	0	-2.309783e-02
313.455600	1.549962	dec_reject	1.549962	16.000000	n/a	0	0	-2.083333e-02
313.455600	1.549962	dec_social_reject_low	1.549962	16.000000	n/a	1	-1.666667e-01	-2.291667e-01
321.105650	1.249867	dec_social_choice	1.249867	32.000000	n/a	16	2.695312e-01	2.695312e-01
321.105650	1.249867	dec_choice	1.249867	32.000000	n/a	16	2.708333e-01	2.708333e-01
321.105650	1.249867	dec_social_accept	1.249867	32.000000	n/a	16	1.362500e-01	1.362500e-01
321.105650	1.249867	dec_accept	1.249867	32.000000	n/a	16	1.250000e-01	1.250000e-01
321.105650	1.249867	dec_social_accept_high	1.249867	32.000000	n/a	16	2.708333e-01	2.708333e-01
330.356380	1.315998	dec_nonsocial_choice	1.315998	32.000000	n/a	8	1.953125e-02	1.953125e-02
330.356380	1.315998	dec_choice	1.315998	32.000000	n/a	8	1.822917e-02	1.822917e-02
330.356380	1.315998	dec_nonsocial_accept	1.315998	32.000000	n/a	8	-1.137500e-01	-1.137500e-01
330.356380	1.315998	dec_accept	1.315998	32.000000	n/a	8	-1.033654e-01	-1.033654e-01
330.356380	1.315998	dec_nonsocial_accept_high	1.315998	32.000000	n/a	8	-1.250000e-01	-1.250000e-01
337.188870	1.483408	dec_social_choice	1.483408	16.000000	n/a	0	0	-2.304688e-01
337.188870	1.483408	dec_choice	1.483408	16.000000	n/a	0	0	-2.291667e-01
337.188870	1.483408	dec_social_reject	1.483408	16.000000	n/a	0	0	-2.309783e-02
337.188870	1.483408	dec_reject	1.483408	16.000000	n/a	0	0	-2.083333e-02
337.188870	1.483408	dec_social_reject_low	1.483408	16.000000	n/a	1	-1.666667e-01	-2.291667e-01
344.021900	1.383493	dec_social_choice	1.383493	16.000000	n/a	0	0	-2.304688e-01
344.021900	1.383493	dec_choice	1.383493	16.000000	n/a	0	0	-2.291667e-01
344.021900	1.383493	dec_social_reject	1.383493	16.000000	n/a	0	0	3.940217e-02
344.021900	1.383493	dec_reject	1.383493	16.000000	n/a	0	0	4.166667e-02
344.021900	1.383493	dec_social_low	1.383493	16.000000	n/a	0	-2.291667e-01	-2.291667e-01
344.021900	1.383493	dec_social_reject_low	1.383493	16.000000	n/a	2	-1.041667e-01	-2.291667e-01
351.656400	1.299669	dec_social_choice	1.299669	32.000000	n/a	16	2.695312e-01	2.695312e-01
351.656400	1.299669	dec_choice	1.299669	32.000000	n/a	16	2.708333e-01	2.708333e-01
351.656400	1.299669	dec_social_accept	1.299669	32.000000	n/a	16	1.362500e-01	1.362500e-01
351.656400	1.299669	dec_accept	1.299669	32.000000	n/a	16	1.250000e-01	1.250000e-01
351.656400	1.299669	dec_social_accept_high	1.299669	32.000000	n/a	16	2.708333e-01	2.708333e-01
358.488980	2.083309	dec_social_choice	2.083309	16.000000	n/a	0	0	-2.304688e-01
358.488980	2.083309	dec_choice	2.083309	16.000000	n/a	0	0	-2.291667e-01
358.488980	2.083309	dec_social_reject	2.083309	16.000000	n/a	0	0	-2.309783e-02
358.488980	2.083309	dec_reject	2.083309	16.000000	n/a	0	0	-2.083333e-02
358.488980	2.083309	dec_social_low	2.083309	16.000000	n/a	0	-2.291667e-01	-2.291667e-01
358.488980	2.083309	dec_social_reject_low	2.083309	16.000000	n/a	1	-1.666667e-01	-2.291667e-01
366.139920	1.582720	dec_nonsocial_choice	1.582720	16.000000	n/a	8	2.695312e-01	2.695312e-01
366.139920	1.582720	dec_choice	1.582720	16.000000	n/a	8	2.682292e-01	2.682292e-01
366.139920	1.582720	dec_nonsocial_accept	1.582720	16.000000	n/a	8	1.362500e-01	1.362500e-01
366.139920	1.582720	dec_accept	1.582720	16.000000	n/a	8	1.466346e-01	1.466346e-01
366.139920	1.582720	dec_nonsocial_high	1.582720	16.000000	n/a	8	2.682292e-01	2.682292e-01
366.139920	1.582720	dec_nonsocial_accept_high	1.582720	16.000000	n/a	8	1.466346e-01	1.466346e-01
372.973100	1.383155	dec_nonsocial_choice	1.383155	32.000000	n/a	16	2.695312e-01	2.695312e-01
372.973100	1.383155	dec_choice	1.383155	32.000000	n/a	16	2.682292e-01	2.682292e-01
372.973100	1.383155	dec_nonsocial_accept	1.383155	32.000000	n/a	16	1.362500e-01	1.362500e-01
372.973100	1.383155	dec_accept	1.383155	32.000000	n/a	16	1.466346e-01	1.466346e-01
372.973100	1.383155	dec_nonsocial_accept_high	1.383155	32.000000	n/a	16	1.250000e-01	1.250000e-01
