onset	duration	trial_type	response_time	Endowment	Endowment_pmod	Decision	Decision_pmod	Offer_pmod
4.600941	2	cue_social	n/a	32	5	n/a	n/a	n/a
4.600941	2	cue_social_high	n/a	32	11	n/a	n/a	n/a
11.343996	2	cue_nonsocial	n/a	16	-5	n/a	n/a	n/a
11.343996	2	cue_nonsocial_low	n/a	16	-11	n/a	n/a	n/a
22.310953	2	cue_social	n/a	32	5	n/a	n/a	n/a
22.310953	2	cue_social_high	n/a	32	11	n/a	n/a	n/a
29.044043	2	cue_nonsocial	n/a	32	11	n/a	n/a	n/a
29.044043	2	cue_nonsocial_high	n/a	32	5	n/a	n/a	n/a
35.880596	2	cue_nonsocial	n/a	16	-5	n/a	n/a	n/a
35.880596	2	cue_nonsocial_low	n/a	16	-11	n/a	n/a	n/a
42.752575	2	cue_social	n/a	16	-11	n/a	n/a	n/a
42.752575	2	cue_social_low	n/a	16	-5	n/a	n/a	n/a
49.544083	2	cue_nonsocial	n/a	16	-5	n/a	n/a	n/a
49.544083	2	cue_nonsocial_low	n/a	16	-11	n/a	n/a	n/a
58.847870	2	cue_social	n/a	16	-11	n/a	n/a	n/a
58.847870	2	cue_social_low	n/a	16	-5	n/a	n/a	n/a
66.443910	2	cue_nonsocial	n/a	16	-5	n/a	n/a	n/a
66.443910	2	cue_nonsocial_low	n/a	16	-11	n/a	n/a	n/a
73.329650	2	cue_social	n/a	32	5	n/a	n/a	n/a
73.329650	2	cue_social_high	n/a	32	11	n/a	n/a	n/a
80.159270	2	cue_social	n/a	16	-11	n/a	n/a	n/a
80.159270	2	cue_social_low	n/a	16	-5	n/a	n/a	n/a
89.413060	2	cue_social	n/a	16	-11	n/a	n/a	n/a
89.413060	2	cue_social_low	n/a	16	-5	n/a	n/a	n/a
96.211430	2	cue_nonsocial	n/a	32	11	n/a	n/a	n/a
96.211430	2	cue_nonsocial_high	n/a	32	5	n/a	n/a	n/a
103.860660	2	cue_nonsocial	n/a	32	11	n/a	n/a	n/a
103.860660	2	cue_nonsocial_high	n/a	32	5	n/a	n/a	n/a
113.114456	2	cue_nonsocial	n/a	16	-5	n/a	n/a	n/a
113.114456	2	cue_nonsocial_low	n/a	16	-11	n/a	n/a	n/a
119.944060	2	cue_nonsocial	n/a	32	11	n/a	n/a	n/a
119.944060	2	cue_nonsocial_high	n/a	32	5	n/a	n/a	n/a
126.777435	2	cue_nonsocial	n/a	16	-5	n/a	n/a	n/a
126.777435	2	cue_nonsocial_low	n/a	16	-11	n/a	n/a	n/a
133.610700	2	cue_nonsocial	n/a	16	-5	n/a	n/a	n/a
133.610700	2	cue_nonsocial_low	n/a	16	-11	n/a	n/a	n/a
142.908170	2	cue_social	n/a	32	5	n/a	n/a	n/a
142.908170	2	cue_social_high	n/a	32	11	n/a	n/a	n/a
149.736180	2	cue_social	n/a	32	5	n/a	n/a	n/a
149.736180	2	cue_social_high	n/a	32	11	n/a	n/a	n/a
160.654920	2	cue_social	n/a	32	5	n/a	n/a	n/a
160.654920	2	cue_social_high	n/a	32	11	n/a	n/a	n/a
167.393810	2	cue_nonsocial	n/a	16	-5	n/a	n/a	n/a
167.393810	2	cue_nonsocial_low	n/a	16	-11	n/a	n/a	n/a
174.271770	2	cue_social	n/a	32	5	n/a	n/a	n/a
174.271770	2	cue_social_high	n/a	32	11	n/a	n/a	n/a
181.927920	2	cue_social	n/a	32	5	n/a	n/a	n/a
181.927920	2	cue_social_high	n/a	32	11	n/a	n/a	n/a
191.127330	2	cue_nonsocial	n/a	32	11	n/a	n/a	n/a
191.127330	2	cue_nonsocial_high	n/a	32	5	n/a	n/a	n/a
200.393770	2	cue_nonsocial	n/a	16	-5	n/a	n/a	n/a
200.393770	2	cue_nonsocial_low	n/a	16	-11	n/a	n/a	n/a
208.081380	2	cue_social	n/a	32	5	n/a	n/a	n/a
208.081380	2	cue_social_high	n/a	32	11	n/a	n/a	n/a
218.910570	2	cue_nonsocial	n/a	16	-5	n/a	n/a	n/a
218.910570	2	cue_nonsocial_low	n/a	16	-11	n/a	n/a	n/a
226.585400	2	cue_social	n/a	32	5	n/a	n/a	n/a
226.585400	2	cue_social_high	n/a	32	11	n/a	n/a	n/a
233.432420	2	cue_social	n/a	32	5	n/a	n/a	n/a
233.432420	2	cue_social_high	n/a	32	11	n/a	n/a	n/a
241.043670	2	cue_nonsocial	n/a	32	11	n/a	n/a	n/a
241.043670	2	cue_nonsocial_high	n/a	32	5	n/a	n/a	n/a
248.693540	2	cue_nonsocial	n/a	16	-5	n/a	n/a	n/a
248.693540	2	cue_nonsocial_low	n/a	16	-11	n/a	n/a	n/a
255.570140	2	cue_social	n/a	16	-11	n/a	n/a	n/a
255.570140	2	cue_social_low	n/a	16	-5	n/a	n/a	n/a
262.360700	2	cue_nonsocial	n/a	16	-5	n/a	n/a	n/a
262.360700	2	cue_nonsocial_low	n/a	16	-11	n/a	n/a	n/a
270.034700	2	cue_social	n/a	32	5	n/a	n/a	n/a
270.034700	2	cue_social_high	n/a	32	11	n/a	n/a	n/a
276.880650	2	cue_social	n/a	32	5	n/a	n/a	n/a
276.880650	2	cue_social_high	n/a	32	11	n/a	n/a	n/a
284.553800	2	cue_social	n/a	16	-11	n/a	n/a	n/a
284.553800	2	cue_social_low	n/a	16	-5	n/a	n/a	n/a
291.372300	2	cue_social	n/a	16	-11	n/a	n/a	n/a
291.372300	2	cue_social_low	n/a	16	-5	n/a	n/a	n/a
298.977140	2	cue_nonsocial	n/a	16	-5	n/a	n/a	n/a
298.977140	2	cue_nonsocial_low	n/a	16	-11	n/a	n/a	n/a
305.897160	2	cue_social	n/a	32	5	n/a	n/a	n/a
305.897160	2	cue_social_high	n/a	32	11	n/a	n/a	n/a
318.293550	2	cue_nonsocial	n/a	32	11	n/a	n/a	n/a
318.293550	2	cue_nonsocial_high	n/a	32	5	n/a	n/a	n/a
325.166720	2	cue_social	n/a	16	-11	n/a	n/a	n/a
325.166720	2	cue_social_low	n/a	16	-5	n/a	n/a	n/a
331.960480	2	cue_nonsocial	n/a	16	-5	n/a	n/a	n/a
331.960480	2	cue_nonsocial_low	n/a	16	-11	n/a	n/a	n/a
338.853030	2	cue_social	n/a	32	5	n/a	n/a	n/a
338.853030	2	cue_social_high	n/a	32	11	n/a	n/a	n/a
348.043640	2	cue_nonsocial	n/a	16	-5	n/a	n/a	n/a
348.043640	2	cue_nonsocial_low	n/a	16	-11	n/a	n/a	n/a
355.693880	2	cue_nonsocial	n/a	16	-5	n/a	n/a	n/a
355.693880	2	cue_nonsocial_low	n/a	16	-11	n/a	n/a	n/a
363.383760	2	cue_social	n/a	32	5	n/a	n/a	n/a
363.383760	2	cue_social_high	n/a	32	11	n/a	n/a	n/a
370.976900	2	cue_nonsocial	n/a	16	-5	n/a	n/a	n/a
370.976900	2	cue_nonsocial_low	n/a	16	-11	n/a	n/a	n/a
6.517076	1.600173	dec_social_choice	1.600173	32.000000	n/a	0	0	-2.317708e-01
6.517076	1.600173	dec_choice	1.600173	32.000000	n/a	0	0	-2.317708e-01
6.517076	1.600173	dec_social_reject	1.600173	32.000000	n/a	0	0	-4.427083e-02
6.517076	1.600173	dec_reject	1.600173	32.000000	n/a	0	0	-5.769231e-02
6.517076	1.600173	dec_social_low	1.600173	32.000000	n/a	0	-2.317708e-01	-2.317708e-01
6.517076	1.600173	dec_social_reject_low	1.600173	32.000000	n/a	2	-1.692708e-01	-2.317708e-01
13.350021	1.632797	dec_nonsocial_choice	1.632797	16.000000	n/a	1	-1.692708e-01	-1.692708e-01
13.350021	1.632797	dec_choice	1.632797	16.000000	n/a	1	-1.692708e-01	-1.692708e-01
13.350021	1.632797	dec_nonsocial_accept	1.632797	16.000000	n/a	1	-2.942708e-01	-2.942708e-01
13.350021	1.632797	dec_accept	1.632797	16.000000	n/a	1	-2.884615e-01	-2.884615e-01
13.350021	1.632797	dec_nonsocial_low	1.632797	16.000000	n/a	1	-1.692708e-01	-1.692708e-01
13.350021	1.632797	dec_nonsocial_accept_low	1.632797	16.000000	n/a	1	-2.884615e-01	-2.884615e-01
24.216848	1.283803	dec_social_choice	1.283803	32.000000	n/a	0	0	-2.317708e-01
24.216848	1.283803	dec_choice	1.283803	32.000000	n/a	0	0	-2.317708e-01
24.216848	1.283803	dec_social_reject	1.283803	32.000000	n/a	0	0	-4.427083e-02
24.216848	1.283803	dec_reject	1.283803	32.000000	n/a	0	0	-5.769231e-02
24.216848	1.283803	dec_social_reject_low	1.283803	32.000000	n/a	2	-1.692708e-01	-2.317708e-01
31.050070	1.117504	dec_nonsocial_choice	1.117504	32.000000	n/a	0	0	-2.317708e-01
31.050070	1.117504	dec_choice	1.117504	32.000000	n/a	0	0	-2.317708e-01
31.050070	1.117504	dec_nonsocial_reject	1.117504	32.000000	n/a	0	0	-4.427083e-02
31.050070	1.117504	dec_reject	1.117504	32.000000	n/a	0	0	-2.840909e-02
31.050070	1.117504	dec_nonsocial_reject_low	1.117504	32.000000	n/a	2	-5.769231e-02	-1.201923e-01
37.883053	1.184203	dec_nonsocial_choice	1.184203	16.000000	n/a	8	2.682292e-01	2.682292e-01
37.883053	1.184203	dec_choice	1.184203	16.000000	n/a	8	2.682292e-01	2.682292e-01
37.883053	1.184203	dec_nonsocial_accept	1.184203	16.000000	n/a	8	1.432292e-01	1.432292e-01
37.883053	1.184203	dec_accept	1.184203	16.000000	n/a	8	1.490385e-01	1.490385e-01
37.883053	1.184203	dec_nonsocial_accept_high	1.184203	16.000000	n/a	8	1.363636e-01	1.363636e-01
44.716866	1.150340	dec_social_choice	1.150340	16.000000	n/a	0	0	-2.317708e-01
44.716866	1.150340	dec_choice	1.150340	16.000000	n/a	0	0	-2.317708e-01
44.716866	1.150340	dec_social_reject	1.150340	16.000000	n/a	0	0	1.822917e-02
44.716866	1.150340	dec_reject	1.150340	16.000000	n/a	0	0	4.807692e-03
44.716866	1.150340	dec_social_reject_low	1.150340	16.000000	n/a	2	-1.067708e-01	-2.317708e-01
51.550663	1.516213	dec_nonsocial_choice	1.516213	16.000000	n/a	4	1.822917e-02	1.822917e-02
51.550663	1.516213	dec_choice	1.516213	16.000000	n/a	4	1.822917e-02	1.822917e-02
51.550663	1.516213	dec_nonsocial_accept	1.516213	16.000000	n/a	4	-1.067708e-01	-1.067708e-01
51.550663	1.516213	dec_accept	1.516213	16.000000	n/a	4	-1.009615e-01	-1.009615e-01
51.550663	1.516213	dec_nonsocial_accept_high	1.516213	16.000000	n/a	4	-1.136364e-01	-1.136364e-01
60.801270	1.415501	dec_social_choice	1.415501	16.000000	n/a	8	2.682292e-01	2.682292e-01
60.801270	1.415501	dec_choice	1.415501	16.000000	n/a	8	2.682292e-01	2.682292e-01
60.801270	1.415501	dec_social_accept	1.415501	16.000000	n/a	8	1.432292e-01	1.432292e-01
60.801270	1.415501	dec_accept	1.415501	16.000000	n/a	8	1.363636e-01	1.363636e-01
60.801270	1.415501	dec_social_high	1.415501	16.000000	n/a	8	2.682292e-01	2.682292e-01
60.801270	1.415501	dec_social_accept_high	1.415501	16.000000	n/a	8	2.682292e-01	2.682292e-01
68.450600	1.050079	dec_nonsocial_choice	1.050079	16.000000	n/a	0	0	-2.317708e-01
68.450600	1.050079	dec_choice	1.050079	16.000000	n/a	0	0	-2.317708e-01
68.450600	1.050079	dec_nonsocial_reject	1.050079	16.000000	n/a	0	0	-4.427083e-02
68.450600	1.050079	dec_reject	1.050079	16.000000	n/a	0	0	-2.840909e-02
68.450600	1.050079	dec_nonsocial_reject_low	1.050079	16.000000	n/a	1	-5.769231e-02	-1.201923e-01
75.282715	1.151042	dec_social_choice	1.151042	32.000000	n/a	16	2.682292e-01	2.682292e-01
75.282715	1.151042	dec_choice	1.151042	32.000000	n/a	16	2.682292e-01	2.682292e-01
75.282715	1.151042	dec_social_accept	1.151042	32.000000	n/a	16	1.432292e-01	1.432292e-01
75.282715	1.151042	dec_accept	1.151042	32.000000	n/a	16	1.363636e-01	1.363636e-01
75.282715	1.151042	dec_social_high	1.151042	32.000000	n/a	16	2.682292e-01	2.682292e-01
75.282715	1.151042	dec_social_accept_high	1.151042	32.000000	n/a	16	2.682292e-01	2.682292e-01
82.117100	1.233597	dec_social_choice	1.233597	16.000000	n/a	0	0	-2.317708e-01
82.117100	1.233597	dec_choice	1.233597	16.000000	n/a	0	0	-2.317708e-01
82.117100	1.233597	dec_social_reject	1.233597	16.000000	n/a	0	0	-4.427083e-02
82.117100	1.233597	dec_reject	1.233597	16.000000	n/a	0	0	-5.769231e-02
82.117100	1.233597	dec_social_low	1.233597	16.000000	n/a	0	-2.317708e-01	-2.317708e-01
82.117100	1.233597	dec_social_reject_low	1.233597	16.000000	n/a	1	-1.692708e-01	-2.317708e-01
91.383300	1.183227	dec_social_choice	1.183227	16.000000	n/a	0	0	-2.317708e-01
91.383300	1.183227	dec_choice	1.183227	16.000000	n/a	0	0	-2.317708e-01
91.383300	1.183227	dec_social_reject	1.183227	16.000000	n/a	0	0	-4.427083e-02
91.383300	1.183227	dec_reject	1.183227	16.000000	n/a	0	0	-5.769231e-02
91.383300	1.183227	dec_social_low	1.183227	16.000000	n/a	0	-2.317708e-01	-2.317708e-01
91.383300	1.183227	dec_social_reject_low	1.183227	16.000000	n/a	1	-1.692708e-01	-2.317708e-01
98.217140	1.216228	dec_nonsocial_choice	1.216228	32.000000	n/a	16	2.682292e-01	2.682292e-01
98.217140	1.216228	dec_choice	1.216228	32.000000	n/a	16	2.682292e-01	2.682292e-01
98.217140	1.216228	dec_nonsocial_accept	1.216228	32.000000	n/a	16	1.432292e-01	1.432292e-01
98.217140	1.216228	dec_accept	1.216228	32.000000	n/a	16	1.490385e-01	1.490385e-01
98.217140	1.216228	dec_nonsocial_accept_high	1.216228	32.000000	n/a	16	1.363636e-01	1.363636e-01
105.867970	1.299640	dec_nonsocial_choice	1.299640	32.000000	n/a	16	2.682292e-01	2.682292e-01
105.867970	1.299640	dec_choice	1.299640	32.000000	n/a	16	2.682292e-01	2.682292e-01
105.867970	1.299640	dec_nonsocial_accept	1.299640	32.000000	n/a	16	1.432292e-01	1.432292e-01
105.867970	1.299640	dec_accept	1.299640	32.000000	n/a	16	1.490385e-01	1.490385e-01
105.867970	1.299640	dec_nonsocial_high	1.299640	32.000000	n/a	16	2.682292e-01	2.682292e-01
105.867970	1.299640	dec_nonsocial_accept_high	1.299640	32.000000	n/a	16	1.490385e-01	1.490385e-01
115.117165	1.216097	dec_nonsocial_choice	1.216097	16.000000	n/a	0	0	-2.317708e-01
115.117165	1.216097	dec_choice	1.216097	16.000000	n/a	0	0	-2.317708e-01
115.117165	1.216097	dec_nonsocial_reject	1.216097	16.000000	n/a	0	0	-4.427083e-02
115.117165	1.216097	dec_reject	1.216097	16.000000	n/a	0	0	-2.840909e-02
115.117165	1.216097	dec_nonsocial_low	1.216097	16.000000	n/a	0	-2.317708e-01	-2.317708e-01
115.117165	1.216097	dec_nonsocial_reject_low	1.216097	16.000000	n/a	1	-2.840909e-02	-9.090909e-02
121.950290	1.200168	dec_nonsocial_choice	1.200168	32.000000	n/a	8	1.822917e-02	1.822917e-02
121.950290	1.200168	dec_choice	1.200168	32.000000	n/a	8	1.822917e-02	1.822917e-02
121.950290	1.200168	dec_nonsocial_accept	1.200168	32.000000	n/a	8	-1.067708e-01	-1.067708e-01
121.950290	1.200168	dec_accept	1.200168	32.000000	n/a	8	-1.009615e-01	-1.009615e-01
121.950290	1.200168	dec_nonsocial_high	1.200168	32.000000	n/a	8	1.822917e-02	1.822917e-02
121.950290	1.200168	dec_nonsocial_accept_high	1.200168	32.000000	n/a	8	-1.009615e-01	-1.009615e-01
128.784150	1.565693	dec_nonsocial_choice	1.565693	16.000000	n/a	8	2.682292e-01	2.682292e-01
128.784150	1.565693	dec_choice	1.565693	16.000000	n/a	8	2.682292e-01	2.682292e-01
128.784150	1.565693	dec_nonsocial_accept	1.565693	16.000000	n/a	8	1.432292e-01	1.432292e-01
128.784150	1.565693	dec_accept	1.565693	16.000000	n/a	8	1.490385e-01	1.490385e-01
128.784150	1.565693	dec_nonsocial_high	1.565693	16.000000	n/a	8	2.682292e-01	2.682292e-01
128.784150	1.565693	dec_nonsocial_accept_high	1.565693	16.000000	n/a	8	1.490385e-01	1.490385e-01
135.617170	1.183186	dec_nonsocial_choice	1.183186	16.000000	n/a	0	0	-2.317708e-01
135.617170	1.183186	dec_choice	1.183186	16.000000	n/a	0	0	-2.317708e-01
135.617170	1.183186	dec_nonsocial_reject	1.183186	16.000000	n/a	0	0	-4.427083e-02
135.617170	1.183186	dec_reject	1.183186	16.000000	n/a	0	0	-2.840909e-02
135.617170	1.183186	dec_nonsocial_low	1.183186	16.000000	n/a	0	-2.317708e-01	-2.317708e-01
135.617170	1.183186	dec_nonsocial_reject_low	1.183186	16.000000	n/a	1	-2.840909e-02	-9.090909e-02
144.866580	1.433537	dec_social_choice	1.433537	32.000000	n/a	0	0	-2.317708e-01
144.866580	1.433537	dec_choice	1.433537	32.000000	n/a	0	0	-2.317708e-01
144.866580	1.433537	dec_social_reject	1.433537	32.000000	n/a	0	0	-1.302083e-02
144.866580	1.433537	dec_reject	1.433537	32.000000	n/a	0	0	-2.644231e-02
144.866580	1.433537	dec_social_reject_low	1.433537	32.000000	n/a	3	-1.380208e-01	-2.317708e-01
151.700330	1.316231	dec_social_choice	1.316231	32.000000	n/a	16	2.682292e-01	2.682292e-01
151.700330	1.316231	dec_choice	1.316231	32.000000	n/a	16	2.682292e-01	2.682292e-01
151.700330	1.316231	dec_social_accept	1.316231	32.000000	n/a	16	1.432292e-01	1.432292e-01
151.700330	1.316231	dec_accept	1.316231	32.000000	n/a	16	1.363636e-01	1.363636e-01
151.700330	1.316231	dec_social_high	1.316231	32.000000	n/a	16	2.682292e-01	2.682292e-01
151.700330	1.316231	dec_social_accept_high	1.316231	32.000000	n/a	16	2.682292e-01	2.682292e-01
162.568120	1.731581	dec_social_choice	1.731581	32.000000	n/a	0	0	-2.317708e-01
162.568120	1.731581	dec_choice	1.731581	32.000000	n/a	0	0	-2.317708e-01
162.568120	1.731581	dec_social_reject	1.731581	32.000000	n/a	0	0	-1.302083e-02
162.568120	1.731581	dec_reject	1.731581	32.000000	n/a	0	0	-2.644231e-02
162.568120	1.731581	dec_social_low	1.731581	32.000000	n/a	0	-2.317708e-01	-2.317708e-01
162.568120	1.731581	dec_social_reject_low	1.731581	32.000000	n/a	3	-1.380208e-01	-2.317708e-01
169.401210	1.199055	dec_nonsocial_choice	1.199055	16.000000	n/a	0	0	-2.317708e-01
169.401210	1.199055	dec_choice	1.199055	16.000000	n/a	0	0	-2.317708e-01
169.401210	1.199055	dec_nonsocial_reject	1.199055	16.000000	n/a	0	0	1.822917e-02
169.401210	1.199055	dec_reject	1.199055	16.000000	n/a	0	0	3.409091e-02
169.401210	1.199055	dec_nonsocial_reject_low	1.199055	16.000000	n/a	2	4.807692e-03	-1.201923e-01
176.233340	1.500293	dec_social_choice	1.500293	32.000000	n/a	0	0	-2.317708e-01
176.233340	1.500293	dec_choice	1.500293	32.000000	n/a	0	0	-2.317708e-01
176.233340	1.500293	dec_social_reject	1.500293	32.000000	n/a	0	0	-4.427083e-02
176.233340	1.500293	dec_reject	1.500293	32.000000	n/a	0	0	-5.769231e-02
176.233340	1.500293	dec_social_low	1.500293	32.000000	n/a	0	-2.317708e-01	-2.317708e-01
176.233340	1.500293	dec_social_reject_low	1.500293	32.000000	n/a	2	-1.692708e-01	-2.317708e-01
183.883200	1.784184	dec_social_choice	1.784184	32.000000	n/a	8	1.822917e-02	1.822917e-02
183.883200	1.784184	dec_choice	1.784184	32.000000	n/a	8	1.822917e-02	1.822917e-02
183.883200	1.784184	dec_social_accept	1.784184	32.000000	n/a	8	-1.067708e-01	-1.067708e-01
183.883200	1.784184	dec_accept	1.784184	32.000000	n/a	8	-1.136364e-01	-1.136364e-01
183.883200	1.784184	dec_social_accept_high	1.784184	32.000000	n/a	8	1.822917e-02	1.822917e-02
193.133220	1.932797	dec_nonsocial_choice	1.932797	32.000000	n/a	0	0	-2.317708e-01
193.133220	1.932797	dec_choice	1.932797	32.000000	n/a	0	0	-2.317708e-01
193.133220	1.932797	dec_nonsocial_reject	1.932797	32.000000	n/a	0	0	-1.302083e-02
193.133220	1.932797	dec_reject	1.932797	32.000000	n/a	0	0	2.840909e-03
193.133220	1.932797	dec_nonsocial_reject_low	1.932797	32.000000	n/a	3	-2.644231e-02	-1.201923e-01
202.401200	1.665419	dec_nonsocial_choice	1.665419	16.000000	n/a	4	1.822917e-02	1.822917e-02
202.401200	1.665419	dec_choice	1.665419	16.000000	n/a	4	1.822917e-02	1.822917e-02
202.401200	1.665419	dec_nonsocial_accept	1.665419	16.000000	n/a	4	-1.067708e-01	-1.067708e-01
202.401200	1.665419	dec_accept	1.665419	16.000000	n/a	4	-1.009615e-01	-1.009615e-01
202.401200	1.665419	dec_nonsocial_high	1.665419	16.000000	n/a	4	1.822917e-02	1.822917e-02
202.401200	1.665419	dec_nonsocial_accept_high	1.665419	16.000000	n/a	4	-1.009615e-01	-1.009615e-01
210.050230	1.166853	dec_social_choice	1.166853	32.000000	n/a	8	1.822917e-02	1.822917e-02
210.050230	1.166853	dec_choice	1.166853	32.000000	n/a	8	1.822917e-02	1.822917e-02
210.050230	1.166853	dec_social_accept	1.166853	32.000000	n/a	8	-1.067708e-01	-1.067708e-01
210.050230	1.166853	dec_accept	1.166853	32.000000	n/a	8	-1.136364e-01	-1.136364e-01
210.050230	1.166853	dec_social_accept_high	1.166853	32.000000	n/a	8	1.822917e-02	1.822917e-02
220.917240	1.383196	dec_nonsocial_choice	1.383196	16.000000	n/a	4	1.822917e-02	1.822917e-02
220.917240	1.383196	dec_choice	1.383196	16.000000	n/a	4	1.822917e-02	1.822917e-02
220.917240	1.383196	dec_nonsocial_accept	1.383196	16.000000	n/a	4	-1.067708e-01	-1.067708e-01
220.917240	1.383196	dec_accept	1.383196	16.000000	n/a	4	-1.009615e-01	-1.009615e-01
220.917240	1.383196	dec_nonsocial_high	1.383196	16.000000	n/a	4	1.822917e-02	1.822917e-02
220.917240	1.383196	dec_nonsocial_accept_high	1.383196	16.000000	n/a	4	-1.009615e-01	-1.009615e-01
228.566560	1.333147	dec_social_choice	1.333147	32.000000	n/a	8	1.822917e-02	1.822917e-02
228.566560	1.333147	dec_choice	1.333147	32.000000	n/a	8	1.822917e-02	1.822917e-02
228.566560	1.333147	dec_social_accept	1.333147	32.000000	n/a	8	-1.067708e-01	-1.067708e-01
228.566560	1.333147	dec_accept	1.333147	32.000000	n/a	8	-1.136364e-01	-1.136364e-01
228.566560	1.333147	dec_social_high	1.333147	32.000000	n/a	8	1.822917e-02	1.822917e-02
228.566560	1.333147	dec_social_accept_high	1.333147	32.000000	n/a	8	1.822917e-02	1.822917e-02
235.401210	1.382084	dec_social_choice	1.382084	32.000000	n/a	0	0	-2.317708e-01
235.401210	1.382084	dec_choice	1.382084	32.000000	n/a	0	0	-2.317708e-01
235.401210	1.382084	dec_social_reject	1.382084	32.000000	n/a	0	0	-4.427083e-02
235.401210	1.382084	dec_reject	1.382084	32.000000	n/a	0	0	-5.769231e-02
235.401210	1.382084	dec_social_reject_low	1.382084	32.000000	n/a	2	-1.692708e-01	-2.317708e-01
243.050380	1.533108	dec_nonsocial_choice	1.533108	32.000000	n/a	0	0	-2.317708e-01
243.050380	1.533108	dec_choice	1.533108	32.000000	n/a	0	0	-2.317708e-01
243.050380	1.533108	dec_nonsocial_reject	1.533108	32.000000	n/a	0	0	-1.302083e-02
243.050380	1.533108	dec_reject	1.533108	32.000000	n/a	0	0	2.840909e-03
243.050380	1.533108	dec_nonsocial_low	1.533108	32.000000	n/a	0	-2.317708e-01	-2.317708e-01
243.050380	1.533108	dec_nonsocial_reject_low	1.533108	32.000000	n/a	3	2.840909e-03	-9.090909e-02
250.700010	1.400261	dec_nonsocial_choice	1.400261	16.000000	n/a	0	0	-2.317708e-01
250.700010	1.400261	dec_choice	1.400261	16.000000	n/a	0	0	-2.317708e-01
250.700010	1.400261	dec_nonsocial_reject	1.400261	16.000000	n/a	0	0	1.822917e-02
250.700010	1.400261	dec_reject	1.400261	16.000000	n/a	0	0	3.409091e-02
250.700010	1.400261	dec_nonsocial_low	1.400261	16.000000	n/a	0	-2.317708e-01	-2.317708e-01
250.700010	1.400261	dec_nonsocial_reject_low	1.400261	16.000000	n/a	2	3.409091e-02	-9.090909e-02
257.533260	1.766646	dec_social_choice	1.766646	16.000000	n/a	8	2.682292e-01	2.682292e-01
257.533260	1.766646	dec_choice	1.766646	16.000000	n/a	8	2.682292e-01	2.682292e-01
257.533260	1.766646	dec_social_accept	1.766646	16.000000	n/a	8	1.432292e-01	1.432292e-01
257.533260	1.766646	dec_accept	1.766646	16.000000	n/a	8	1.363636e-01	1.363636e-01
257.533260	1.766646	dec_social_high	1.766646	16.000000	n/a	8	2.682292e-01	2.682292e-01
257.533260	1.766646	dec_social_accept_high	1.766646	16.000000	n/a	8	2.682292e-01	2.682292e-01
264.366460	1.200584	dec_nonsocial_choice	1.200584	16.000000	n/a	4	1.822917e-02	1.822917e-02
264.366460	1.200584	dec_choice	1.200584	16.000000	n/a	4	1.822917e-02	1.822917e-02
264.366460	1.200584	dec_nonsocial_accept	1.200584	16.000000	n/a	4	-1.067708e-01	-1.067708e-01
264.366460	1.200584	dec_accept	1.200584	16.000000	n/a	4	-1.009615e-01	-1.009615e-01
264.366460	1.200584	dec_nonsocial_high	1.200584	16.000000	n/a	4	1.822917e-02	1.822917e-02
264.366460	1.200584	dec_nonsocial_accept_high	1.200584	16.000000	n/a	4	-1.009615e-01	-1.009615e-01
272.016300	1.116923	dec_social_choice	1.116923	32.000000	n/a	16	2.682292e-01	2.682292e-01
272.016300	1.116923	dec_choice	1.116923	32.000000	n/a	16	2.682292e-01	2.682292e-01
272.016300	1.116923	dec_social_accept	1.116923	32.000000	n/a	16	1.432292e-01	1.432292e-01
272.016300	1.116923	dec_accept	1.116923	32.000000	n/a	16	1.363636e-01	1.363636e-01
272.016300	1.116923	dec_social_high	1.116923	32.000000	n/a	16	2.682292e-01	2.682292e-01
272.016300	1.116923	dec_social_accept_high	1.116923	32.000000	n/a	16	2.682292e-01	2.682292e-01
278.850300	1.083121	dec_social_choice	1.083121	32.000000	n/a	0	0	-2.317708e-01
278.850300	1.083121	dec_choice	1.083121	32.000000	n/a	0	0	-2.317708e-01
278.850300	1.083121	dec_social_reject	1.083121	32.000000	n/a	0	0	3.932292e-01
278.850300	1.083121	dec_reject	1.083121	32.000000	n/a	0	0	3.798077e-01
278.850300	1.083121	dec_social_low	1.083121	32.000000	n/a	0	-2.317708e-01	-2.317708e-01
278.850300	1.083121	dec_social_reject_low	1.083121	32.000000	n/a	16	2.682292e-01	-2.317708e-01
286.500520	1.516106	dec_social_choice	1.516106	16.000000	n/a	0	0	-2.317708e-01
286.500520	1.516106	dec_choice	1.516106	16.000000	n/a	0	0	-2.317708e-01
286.500520	1.516106	dec_social_reject	1.516106	16.000000	n/a	0	0	1.822917e-02
286.500520	1.516106	dec_reject	1.516106	16.000000	n/a	0	0	4.807692e-03
286.500520	1.516106	dec_social_low	1.516106	16.000000	n/a	0	-2.317708e-01	-2.317708e-01
286.500520	1.516106	dec_social_reject_low	1.516106	16.000000	n/a	2	-1.067708e-01	-2.317708e-01
293.334320	1.566282	dec_social_choice	1.566282	16.000000	n/a	0	0	-2.317708e-01
293.334320	1.566282	dec_choice	1.566282	16.000000	n/a	0	0	-2.317708e-01
293.334320	1.566282	dec_social_reject	1.566282	16.000000	n/a	0	0	1.822917e-02
293.334320	1.566282	dec_reject	1.566282	16.000000	n/a	0	0	4.807692e-03
293.334320	1.566282	dec_social_low	1.566282	16.000000	n/a	0	-2.317708e-01	-2.317708e-01
293.334320	1.566282	dec_social_reject_low	1.566282	16.000000	n/a	2	-1.067708e-01	-2.317708e-01
300.984250	1.649173	dec_nonsocial_choice	1.649173	16.000000	n/a	4	1.822917e-02	1.822917e-02
300.984250	1.649173	dec_choice	1.649173	16.000000	n/a	4	1.822917e-02	1.822917e-02
300.984250	1.649173	dec_nonsocial_accept	1.649173	16.000000	n/a	4	-1.067708e-01	-1.067708e-01
300.984250	1.649173	dec_accept	1.649173	16.000000	n/a	4	-1.009615e-01	-1.009615e-01
300.984250	1.649173	dec_nonsocial_accept_high	1.649173	16.000000	n/a	4	-1.136364e-01	-1.136364e-01
307.816800	1.283073	dec_social_choice	1.283073	32.000000	n/a	8	1.822917e-02	1.822917e-02
307.816800	1.283073	dec_choice	1.283073	32.000000	n/a	8	1.822917e-02	1.822917e-02
307.816800	1.283073	dec_social_accept	1.283073	32.000000	n/a	8	-1.067708e-01	-1.067708e-01
307.816800	1.283073	dec_accept	1.283073	32.000000	n/a	8	-1.136364e-01	-1.136364e-01
307.816800	1.283073	dec_social_accept_high	1.283073	32.000000	n/a	8	1.822917e-02	1.822917e-02
320.300350	1.100001	dec_nonsocial_choice	1.100001	32.000000	n/a	16	2.682292e-01	2.682292e-01
320.300350	1.100001	dec_choice	1.100001	32.000000	n/a	16	2.682292e-01	2.682292e-01
320.300350	1.100001	dec_nonsocial_accept	1.100001	32.000000	n/a	16	1.432292e-01	1.432292e-01
320.300350	1.100001	dec_accept	1.100001	32.000000	n/a	16	1.490385e-01	1.490385e-01
320.300350	1.100001	dec_nonsocial_accept_high	1.100001	32.000000	n/a	16	1.363636e-01	1.363636e-01
327.133360	1.283662	dec_social_choice	1.283662	16.000000	n/a	0	0	-2.317708e-01
327.133360	1.283662	dec_choice	1.283662	16.000000	n/a	0	0	-2.317708e-01
327.133360	1.283662	dec_social_reject	1.283662	16.000000	n/a	0	0	1.822917e-02
327.133360	1.283662	dec_reject	1.283662	16.000000	n/a	0	0	4.807692e-03
327.133360	1.283662	dec_social_reject_low	1.283662	16.000000	n/a	2	-1.067708e-01	-2.317708e-01
333.967160	1.366494	dec_nonsocial_choice	1.366494	16.000000	n/a	0	0	-2.317708e-01
333.967160	1.366494	dec_choice	1.366494	16.000000	n/a	0	0	-2.317708e-01
333.967160	1.366494	dec_nonsocial_reject	1.366494	16.000000	n/a	0	0	1.822917e-02
333.967160	1.366494	dec_reject	1.366494	16.000000	n/a	0	0	3.409091e-02
333.967160	1.366494	dec_nonsocial_low	1.366494	16.000000	n/a	0	-2.317708e-01	-2.317708e-01
333.967160	1.366494	dec_nonsocial_reject_low	1.366494	16.000000	n/a	2	3.409091e-02	-9.090909e-02
340.800380	2.049908	dec_social_choice	2.049908	32.000000	n/a	8	1.822917e-02	1.822917e-02
340.800380	2.049908	dec_choice	2.049908	32.000000	n/a	8	1.822917e-02	1.822917e-02
340.800380	2.049908	dec_social_accept	2.049908	32.000000	n/a	8	-1.067708e-01	-1.067708e-01
340.800380	2.049908	dec_accept	2.049908	32.000000	n/a	8	-1.136364e-01	-1.136364e-01
340.800380	2.049908	dec_social_accept_high	2.049908	32.000000	n/a	8	1.822917e-02	1.822917e-02
350.049800	1.200545	dec_nonsocial_choice	1.200545	16.000000	n/a	0	0	-2.317708e-01
350.049800	1.200545	dec_choice	1.200545	16.000000	n/a	0	0	-2.317708e-01
350.049800	1.200545	dec_nonsocial_reject	1.200545	16.000000	n/a	0	0	1.822917e-02
350.049800	1.200545	dec_reject	1.200545	16.000000	n/a	0	0	3.409091e-02
350.049800	1.200545	dec_nonsocial_reject_low	1.200545	16.000000	n/a	2	4.807692e-03	-1.201923e-01
357.700380	1.233167	dec_nonsocial_choice	1.233167	16.000000	n/a	0	0	-2.317708e-01
357.700380	1.233167	dec_choice	1.233167	16.000000	n/a	0	0	-2.317708e-01
357.700380	1.233167	dec_nonsocial_reject	1.233167	16.000000	n/a	0	0	-4.427083e-02
357.700380	1.233167	dec_reject	1.233167	16.000000	n/a	0	0	-2.840909e-02
357.700380	1.233167	dec_nonsocial_low	1.233167	16.000000	n/a	0	-2.317708e-01	-2.317708e-01
357.700380	1.233167	dec_nonsocial_reject_low	1.233167	16.000000	n/a	1	-2.840909e-02	-9.090909e-02
365.349580	1.650791	dec_social_choice	1.650791	32.000000	n/a	8	1.822917e-02	1.822917e-02
365.349580	1.650791	dec_choice	1.650791	32.000000	n/a	8	1.822917e-02	1.822917e-02
365.349580	1.650791	dec_social_accept	1.650791	32.000000	n/a	8	-1.067708e-01	-1.067708e-01
365.349580	1.650791	dec_accept	1.650791	32.000000	n/a	8	-1.136364e-01	-1.136364e-01
365.349580	1.650791	dec_social_accept_high	1.650791	32.000000	n/a	8	1.822917e-02	1.822917e-02
372.983400	1.233395	dec_nonsocial_choice	1.233395	16.000000	n/a	8	2.682292e-01	2.682292e-01
372.983400	1.233395	dec_choice	1.233395	16.000000	n/a	8	2.682292e-01	2.682292e-01
372.983400	1.233395	dec_nonsocial_accept	1.233395	16.000000	n/a	8	1.432292e-01	1.432292e-01
372.983400	1.233395	dec_accept	1.233395	16.000000	n/a	8	1.490385e-01	1.490385e-01
372.983400	1.233395	dec_nonsocial_accept_high	1.233395	16.000000	n/a	8	1.363636e-01	1.363636e-01
