onset	duration	trial_type	response_time	Endowment	Endowment_pmod	Decision	Decision_pmod	Offer_pmod
4.592247	2	cue_social	n/a	16	-10	n/a	n/a	n/a
4.592247	2	cue_social_low	n/a	16	-5	n/a	n/a	n/a
13.845163	2	cue_social	n/a	32	6	n/a	n/a	n/a
13.845163	2	cue_social_high	n/a	32	11	n/a	n/a	n/a
20.601532	2	cue_nonsocial	n/a	16	-5	n/a	n/a	n/a
20.601532	2	cue_nonsocial_low	n/a	16	-10	n/a	n/a	n/a
27.467701	2	cue_social	n/a	16	-10	n/a	n/a	n/a
27.467701	2	cue_social_low	n/a	16	-5	n/a	n/a	n/a
35.085003	2	cue_nonsocial	n/a	16	-5	n/a	n/a	n/a
35.085003	2	cue_nonsocial_low	n/a	16	-10	n/a	n/a	n/a
41.918377	2	cue_nonsocial	n/a	16	-5	n/a	n/a	n/a
41.918377	2	cue_nonsocial_low	n/a	16	-10	n/a	n/a	n/a
51.168270	2	cue_nonsocial	n/a	16	-5	n/a	n/a	n/a
51.168270	2	cue_nonsocial_low	n/a	16	-10	n/a	n/a	n/a
58.870316	2	cue_social	n/a	32	6	n/a	n/a	n/a
58.870316	2	cue_social_high	n/a	32	11	n/a	n/a	n/a
65.651550	2	cue_nonsocial	n/a	16	-5	n/a	n/a	n/a
65.651550	2	cue_nonsocial_low	n/a	16	-10	n/a	n/a	n/a
74.972755	2	cue_social	n/a	32	6	n/a	n/a	n/a
74.972755	2	cue_social_high	n/a	32	11	n/a	n/a	n/a
84.151580	2	cue_nonsocial	n/a	16	-5	n/a	n/a	n/a
84.151580	2	cue_nonsocial_low	n/a	16	-10	n/a	n/a	n/a
91.784920	2	cue_nonsocial	n/a	16	-5	n/a	n/a	n/a
91.784920	2	cue_nonsocial_low	n/a	16	-10	n/a	n/a	n/a
98.618470	2	cue_nonsocial	n/a	32	11	n/a	n/a	n/a
98.618470	2	cue_nonsocial_high	n/a	32	6	n/a	n/a	n/a
105.514760	2	cue_social	n/a	16	-10	n/a	n/a	n/a
105.514760	2	cue_social_low	n/a	16	-5	n/a	n/a	n/a
113.101685	2	cue_nonsocial	n/a	16	-5	n/a	n/a	n/a
113.101685	2	cue_nonsocial_low	n/a	16	-10	n/a	n/a	n/a
120.034310	2	cue_social	n/a	32	6	n/a	n/a	n/a
120.034310	2	cue_social_high	n/a	32	11	n/a	n/a	n/a
126.768320	2	cue_nonsocial	n/a	16	-5	n/a	n/a	n/a
126.768320	2	cue_nonsocial_low	n/a	16	-10	n/a	n/a	n/a
133.629560	2	cue_social	n/a	16	-10	n/a	n/a	n/a
133.629560	2	cue_social_low	n/a	16	-5	n/a	n/a	n/a
142.973100	2	cue_social	n/a	32	6	n/a	n/a	n/a
142.973100	2	cue_social_high	n/a	32	11	n/a	n/a	n/a
150.576160	2	cue_social	n/a	16	-10	n/a	n/a	n/a
150.576160	2	cue_social_low	n/a	16	-5	n/a	n/a	n/a
163.047100	2	cue_social	n/a	32	6	n/a	n/a	n/a
163.047100	2	cue_social_high	n/a	32	11	n/a	n/a	n/a
169.818360	2	cue_nonsocial	n/a	16	-5	n/a	n/a	n/a
169.818360	2	cue_nonsocial_low	n/a	16	-10	n/a	n/a	n/a
176.693920	2	cue_social	n/a	32	6	n/a	n/a	n/a
176.693920	2	cue_social_high	n/a	32	11	n/a	n/a	n/a
183.535890	2	cue_social	n/a	32	6	n/a	n/a	n/a
183.535890	2	cue_social_high	n/a	32	11	n/a	n/a	n/a
191.144730	2	cue_social	n/a	32	6	n/a	n/a	n/a
191.144730	2	cue_social_high	n/a	32	11	n/a	n/a	n/a
198.785320	2	cue_nonsocial	n/a	16	-5	n/a	n/a	n/a
198.785320	2	cue_nonsocial_low	n/a	16	-10	n/a	n/a	n/a
205.618230	2	cue_nonsocial	n/a	16	-5	n/a	n/a	n/a
205.618230	2	cue_nonsocial_low	n/a	16	-10	n/a	n/a	n/a
213.268390	2	cue_nonsocial	n/a	32	11	n/a	n/a	n/a
213.268390	2	cue_nonsocial_high	n/a	32	6	n/a	n/a	n/a
222.535080	2	cue_nonsocial	n/a	16	-5	n/a	n/a	n/a
222.535080	2	cue_nonsocial_low	n/a	16	-10	n/a	n/a	n/a
230.224840	2	cue_social	n/a	32	6	n/a	n/a	n/a
230.224840	2	cue_social_high	n/a	32	11	n/a	n/a	n/a
237.082660	2	cue_social	n/a	32	6	n/a	n/a	n/a
237.082660	2	cue_social_high	n/a	32	11	n/a	n/a	n/a
243.851610	2	cue_nonsocial	n/a	16	-5	n/a	n/a	n/a
243.851610	2	cue_nonsocial_low	n/a	16	-10	n/a	n/a	n/a
250.685170	2	cue_nonsocial	n/a	32	11	n/a	n/a	n/a
250.685170	2	cue_nonsocial_high	n/a	32	6	n/a	n/a	n/a
257.518220	2	cue_nonsocial	n/a	32	11	n/a	n/a	n/a
257.518220	2	cue_nonsocial_high	n/a	32	6	n/a	n/a	n/a
265.168180	2	cue_nonsocial	n/a	32	11	n/a	n/a	n/a
265.168180	2	cue_nonsocial_high	n/a	32	6	n/a	n/a	n/a
276.097530	2	cue_social	n/a	16	-10	n/a	n/a	n/a
276.097530	2	cue_social_low	n/a	16	-5	n/a	n/a	n/a
282.918270	2	cue_social	n/a	32	6	n/a	n/a	n/a
282.918270	2	cue_social_high	n/a	32	11	n/a	n/a	n/a
290.501600	2	cue_nonsocial	n/a	16	-5	n/a	n/a	n/a
290.501600	2	cue_nonsocial_low	n/a	16	-10	n/a	n/a	n/a
297.382300	2	cue_social	n/a	32	6	n/a	n/a	n/a
297.382300	2	cue_social_high	n/a	32	11	n/a	n/a	n/a
304.244780	2	cue_social	n/a	32	6	n/a	n/a	n/a
304.244780	2	cue_social_high	n/a	32	11	n/a	n/a	n/a
311.818180	2	cue_nonsocial	n/a	32	11	n/a	n/a	n/a
311.818180	2	cue_nonsocial_high	n/a	32	6	n/a	n/a	n/a
318.689850	2	cue_social	n/a	16	-10	n/a	n/a	n/a
318.689850	2	cue_social_low	n/a	16	-5	n/a	n/a	n/a
327.918100	2	cue_nonsocial	n/a	32	11	n/a	n/a	n/a
327.918100	2	cue_nonsocial_high	n/a	32	6	n/a	n/a	n/a
338.828600	2	cue_social	n/a	32	6	n/a	n/a	n/a
338.828600	2	cue_social_high	n/a	32	11	n/a	n/a	n/a
349.651520	2	cue_nonsocial	n/a	16	-5	n/a	n/a	n/a
349.651520	2	cue_nonsocial_low	n/a	16	-10	n/a	n/a	n/a
356.549000	2	cue_social	n/a	16	-10	n/a	n/a	n/a
356.549000	2	cue_social_low	n/a	16	-5	n/a	n/a	n/a
363.318050	2	cue_nonsocial	n/a	32	11	n/a	n/a	n/a
363.318050	2	cue_nonsocial_high	n/a	32	6	n/a	n/a	n/a
370.996300	2	cue_social	n/a	16	-10	n/a	n/a	n/a
370.996300	2	cue_social_low	n/a	16	-5	n/a	n/a	n/a
6.523983	1.517798	dec_social_choice	1.517798	16.000000	n/a	8	2.688802e-01	2.688802e-01
6.523983	1.517798	dec_choice	1.517798	16.000000	n/a	8	2.708333e-01	2.708333e-01
6.523983	1.517798	dec_social_accept	1.517798	16.000000	n/a	8	1.250000e-01	1.250000e-01
6.523983	1.517798	dec_accept	1.517798	16.000000	n/a	8	1.250000e-01	1.250000e-01
6.523983	1.517798	dec_social_accept_high	1.517798	16.000000	n/a	8	2.708333e-01	2.708333e-01
15.773989	1.917614	dec_social_choice	1.917614	32.000000	n/a	0	0	-2.311198e-01
15.773989	1.917614	dec_choice	1.917614	32.000000	n/a	0	0	-2.291667e-01
15.773989	1.917614	dec_social_reject	1.917614	32.000000	n/a	0	0	6.510417e-03
15.773989	1.917614	dec_reject	1.917614	32.000000	n/a	0	0	1.041667e-02
15.773989	1.917614	dec_social_low	1.917614	32.000000	n/a	0	-2.291667e-01	-2.291667e-01
15.773989	1.917614	dec_social_reject_low	1.917614	32.000000	n/a	3	-1.354167e-01	-2.291667e-01
22.608002	1.383554	dec_nonsocial_choice	1.383554	16.000000	n/a	0	0	-2.311198e-01
22.608002	1.383554	dec_choice	1.383554	16.000000	n/a	0	0	-2.330729e-01
22.608002	1.383554	dec_nonsocial_reject	1.383554	16.000000	n/a	0	0	3.776042e-02
22.608002	1.383554	dec_reject	1.383554	16.000000	n/a	0	0	3.385417e-02
22.608002	1.383554	dec_nonsocial_reject_low	1.383554	16.000000	n/a	2	4.166667e-02	-8.333333e-02
29.441225	1.383263	dec_social_choice	1.383263	16.000000	n/a	4	1.888021e-02	1.888021e-02
29.441225	1.383263	dec_choice	1.383263	16.000000	n/a	4	2.083333e-02	2.083333e-02
29.441225	1.383263	dec_social_accept	1.383263	16.000000	n/a	4	-1.250000e-01	-1.250000e-01
29.441225	1.383263	dec_accept	1.383263	16.000000	n/a	4	-1.250000e-01	-1.250000e-01
29.441225	1.383263	dec_social_accept_high	1.383263	16.000000	n/a	4	2.083333e-02	2.083333e-02
37.091988	1.415536	dec_nonsocial_choice	1.415536	16.000000	n/a	0	0	-2.311198e-01
37.091988	1.415536	dec_choice	1.415536	16.000000	n/a	0	0	-2.330729e-01
37.091988	1.415536	dec_nonsocial_reject	1.415536	16.000000	n/a	0	0	3.776042e-02
37.091988	1.415536	dec_reject	1.415536	16.000000	n/a	0	0	3.385417e-02
37.091988	1.415536	dec_nonsocial_low	1.415536	16.000000	n/a	0	-2.330729e-01	-2.330729e-01
37.091988	1.415536	dec_nonsocial_reject_low	1.415536	16.000000	n/a	2	3.385417e-02	-9.114583e-02
43.924900	1.083292	dec_nonsocial_choice	1.083292	16.000000	n/a	4	1.888021e-02	1.888021e-02
43.924900	1.083292	dec_choice	1.083292	16.000000	n/a	4	1.692708e-02	1.692708e-02
43.924900	1.083292	dec_nonsocial_accept	1.083292	16.000000	n/a	4	-1.250000e-01	-1.250000e-01
43.924900	1.083292	dec_accept	1.083292	16.000000	n/a	4	-1.250000e-01	-1.250000e-01
43.924900	1.083292	dec_nonsocial_accept_high	1.083292	16.000000	n/a	4	-1.250000e-01	-1.250000e-01
53.175095	1.199881	dec_nonsocial_choice	1.199881	16.000000	n/a	0	0	-2.311198e-01
53.175095	1.199881	dec_choice	1.199881	16.000000	n/a	0	0	-2.330729e-01
53.175095	1.199881	dec_nonsocial_reject	1.199881	16.000000	n/a	0	0	-2.473958e-02
53.175095	1.199881	dec_reject	1.199881	16.000000	n/a	0	0	-2.864583e-02
53.175095	1.199881	dec_nonsocial_reject_low	1.199881	16.000000	n/a	1	-2.083333e-02	-8.333333e-02
60.826023	1.248939	dec_social_choice	1.248939	32.000000	n/a	8	1.888021e-02	1.888021e-02
60.826023	1.248939	dec_choice	1.248939	32.000000	n/a	8	2.083333e-02	2.083333e-02
60.826023	1.248939	dec_social_accept	1.248939	32.000000	n/a	8	-1.250000e-01	-1.250000e-01
60.826023	1.248939	dec_accept	1.248939	32.000000	n/a	8	-1.250000e-01	-1.250000e-01
60.826023	1.248939	dec_social_accept_high	1.248939	32.000000	n/a	8	2.083333e-02	2.083333e-02
67.658280	1.783352	dec_nonsocial_choice	1.783352	16.000000	n/a	0	0	-2.311198e-01
67.658280	1.783352	dec_choice	1.783352	16.000000	n/a	0	0	-2.330729e-01
67.658280	1.783352	dec_nonsocial_reject	1.783352	16.000000	n/a	0	0	3.776042e-02
67.658280	1.783352	dec_reject	1.783352	16.000000	n/a	0	0	3.385417e-02
67.658280	1.783352	dec_nonsocial_low	1.783352	16.000000	n/a	0	-2.330729e-01	-2.330729e-01
67.658280	1.783352	dec_nonsocial_reject_low	1.783352	16.000000	n/a	2	3.385417e-02	-9.114583e-02
76.908030	1.316849	dec_social_choice	1.316849	32.000000	n/a	0	0	-2.311198e-01
76.908030	1.316849	dec_choice	1.316849	32.000000	n/a	0	0	-2.291667e-01
76.908030	1.316849	dec_social_reject	1.316849	32.000000	n/a	0	0	-2.473958e-02
76.908030	1.316849	dec_reject	1.316849	32.000000	n/a	0	0	-2.083333e-02
76.908030	1.316849	dec_social_low	1.316849	32.000000	n/a	0	-2.291667e-01	-2.291667e-01
76.908030	1.316849	dec_social_reject_low	1.316849	32.000000	n/a	2	-1.666667e-01	-2.291667e-01
86.158035	1.317156	dec_nonsocial_choice	1.317156	16.000000	n/a	0	0	-2.311198e-01
86.158035	1.317156	dec_choice	1.317156	16.000000	n/a	0	0	-2.330729e-01
86.158035	1.317156	dec_nonsocial_reject	1.317156	16.000000	n/a	0	0	-2.473958e-02
86.158035	1.317156	dec_reject	1.317156	16.000000	n/a	0	0	-2.864583e-02
86.158035	1.317156	dec_nonsocial_reject_low	1.317156	16.000000	n/a	1	-2.083333e-02	-8.333333e-02
93.792046	1.082940	dec_nonsocial_choice	1.082940	16.000000	n/a	8	2.688802e-01	2.688802e-01
93.792046	1.082940	dec_choice	1.082940	16.000000	n/a	8	2.669271e-01	2.669271e-01
93.792046	1.082940	dec_nonsocial_accept	1.082940	16.000000	n/a	8	1.250000e-01	1.250000e-01
93.792046	1.082940	dec_accept	1.082940	16.000000	n/a	8	1.250000e-01	1.250000e-01
93.792046	1.082940	dec_nonsocial_accept_high	1.082940	16.000000	n/a	8	1.250000e-01	1.250000e-01
100.624275	1.483536	dec_nonsocial_choice	1.483536	32.000000	n/a	16	2.688802e-01	2.688802e-01
100.624275	1.483536	dec_choice	1.483536	32.000000	n/a	16	2.669271e-01	2.669271e-01
100.624275	1.483536	dec_nonsocial_accept	1.483536	32.000000	n/a	16	1.250000e-01	1.250000e-01
100.624275	1.483536	dec_accept	1.483536	32.000000	n/a	16	1.250000e-01	1.250000e-01
100.624275	1.483536	dec_nonsocial_accept_high	1.483536	32.000000	n/a	16	1.250000e-01	1.250000e-01
107.459070	1.299189	dec_social_choice	1.299189	16.000000	n/a	0	0	-2.311198e-01
107.459070	1.299189	dec_choice	1.299189	16.000000	n/a	0	0	-2.291667e-01
107.459070	1.299189	dec_social_reject	1.299189	16.000000	n/a	0	0	3.776042e-02
107.459070	1.299189	dec_reject	1.299189	16.000000	n/a	0	0	4.166667e-02
107.459070	1.299189	dec_social_low	1.299189	16.000000	n/a	0	-2.291667e-01	-2.291667e-01
107.459070	1.299189	dec_social_reject_low	1.299189	16.000000	n/a	2	-1.041667e-01	-2.291667e-01
115.108070	1.416966	dec_nonsocial_choice	1.416966	16.000000	n/a	0	0	-2.311198e-01
115.108070	1.416966	dec_choice	1.416966	16.000000	n/a	0	0	-2.330729e-01
115.108070	1.416966	dec_nonsocial_reject	1.416966	16.000000	n/a	0	0	3.776042e-02
115.108070	1.416966	dec_reject	1.416966	16.000000	n/a	0	0	3.385417e-02
115.108070	1.416966	dec_nonsocial_low	1.416966	16.000000	n/a	0	-2.330729e-01	-2.330729e-01
115.108070	1.416966	dec_nonsocial_reject_low	1.416966	16.000000	n/a	2	3.385417e-02	-9.114583e-02
121.941150	1.517111	dec_social_choice	1.517111	32.000000	n/a	16	2.688802e-01	2.688802e-01
121.941150	1.517111	dec_choice	1.517111	32.000000	n/a	16	2.708333e-01	2.708333e-01
121.941150	1.517111	dec_social_accept	1.517111	32.000000	n/a	16	1.250000e-01	1.250000e-01
121.941150	1.517111	dec_accept	1.517111	32.000000	n/a	16	1.250000e-01	1.250000e-01
121.941150	1.517111	dec_social_accept_high	1.517111	32.000000	n/a	16	2.708333e-01	2.708333e-01
128.775090	1.765941	dec_nonsocial_choice	1.765941	16.000000	n/a	4	1.888021e-02	1.888021e-02
128.775090	1.765941	dec_choice	1.765941	16.000000	n/a	4	1.692708e-02	1.692708e-02
128.775090	1.765941	dec_nonsocial_accept	1.765941	16.000000	n/a	4	-1.250000e-01	-1.250000e-01
128.775090	1.765941	dec_accept	1.765941	16.000000	n/a	4	-1.250000e-01	-1.250000e-01
128.775090	1.765941	dec_nonsocial_high	1.765941	16.000000	n/a	4	1.692708e-02	1.692708e-02
128.775090	1.765941	dec_nonsocial_accept_high	1.765941	16.000000	n/a	4	-1.250000e-01	-1.250000e-01
135.608060	1.399502	dec_social_choice	1.399502	16.000000	n/a	0	0	-2.311198e-01
135.608060	1.399502	dec_choice	1.399502	16.000000	n/a	0	0	-2.291667e-01
135.608060	1.399502	dec_social_reject	1.399502	16.000000	n/a	0	0	-2.473958e-02
135.608060	1.399502	dec_reject	1.399502	16.000000	n/a	0	0	-2.083333e-02
135.608060	1.399502	dec_social_low	1.399502	16.000000	n/a	0	-2.291667e-01	-2.291667e-01
135.608060	1.399502	dec_social_reject_low	1.399502	16.000000	n/a	1	-1.666667e-01	-2.291667e-01
144.874970	1.249742	dec_social_choice	1.249742	32.000000	n/a	16	2.688802e-01	2.688802e-01
144.874970	1.249742	dec_choice	1.249742	32.000000	n/a	16	2.708333e-01	2.708333e-01
144.874970	1.249742	dec_social_accept	1.249742	32.000000	n/a	16	1.250000e-01	1.250000e-01
144.874970	1.249742	dec_accept	1.249742	32.000000	n/a	16	1.250000e-01	1.250000e-01
144.874970	1.249742	dec_social_accept_high	1.249742	32.000000	n/a	16	2.708333e-01	2.708333e-01
152.507640	1.116964	dec_social_choice	1.116964	16.000000	n/a	0	0	-2.311198e-01
152.507640	1.116964	dec_choice	1.116964	16.000000	n/a	0	0	-2.291667e-01
152.507640	1.116964	dec_social_reject	1.116964	16.000000	n/a	0	0	-2.473958e-02
152.507640	1.116964	dec_reject	1.116964	16.000000	n/a	0	0	-2.083333e-02
152.507640	1.116964	dec_social_reject_low	1.116964	16.000000	n/a	1	-1.666667e-01	-2.291667e-01
164.992140	1.282049	dec_social_choice	1.282049	32.000000	n/a	16	2.688802e-01	2.688802e-01
164.992140	1.282049	dec_choice	1.282049	32.000000	n/a	16	2.708333e-01	2.708333e-01
164.992140	1.282049	dec_social_accept	1.282049	32.000000	n/a	16	1.250000e-01	1.250000e-01
164.992140	1.282049	dec_accept	1.282049	32.000000	n/a	16	1.250000e-01	1.250000e-01
164.992140	1.282049	dec_social_high	1.282049	32.000000	n/a	16	2.708333e-01	2.708333e-01
164.992140	1.282049	dec_social_accept_high	1.282049	32.000000	n/a	16	2.708333e-01	2.708333e-01
171.824970	1.699964	dec_nonsocial_choice	1.699964	16.000000	n/a	0	0	-2.311198e-01
171.824970	1.699964	dec_choice	1.699964	16.000000	n/a	0	0	-2.330729e-01
171.824970	1.699964	dec_nonsocial_reject	1.699964	16.000000	n/a	0	0	-2.473958e-02
171.824970	1.699964	dec_reject	1.699964	16.000000	n/a	0	0	-2.864583e-02
171.824970	1.699964	dec_nonsocial_low	1.699964	16.000000	n/a	0	-2.330729e-01	-2.330729e-01
171.824970	1.699964	dec_nonsocial_reject_low	1.699964	16.000000	n/a	1	-2.864583e-02	-9.114583e-02
178.658130	1.616525	dec_social_choice	1.616525	32.000000	n/a	0	0	-2.311198e-01
178.658130	1.616525	dec_choice	1.616525	32.000000	n/a	0	0	-2.291667e-01
178.658130	1.616525	dec_social_reject	1.616525	32.000000	n/a	0	0	6.510417e-03
178.658130	1.616525	dec_reject	1.616525	32.000000	n/a	0	0	1.041667e-02
178.658130	1.616525	dec_social_reject_low	1.616525	32.000000	n/a	3	-1.354167e-01	-2.291667e-01
185.490600	1.367050	dec_social_choice	1.367050	32.000000	n/a	16	2.688802e-01	2.688802e-01
185.490600	1.367050	dec_choice	1.367050	32.000000	n/a	16	2.708333e-01	2.708333e-01
185.490600	1.367050	dec_social_accept	1.367050	32.000000	n/a	16	1.250000e-01	1.250000e-01
185.490600	1.367050	dec_accept	1.367050	32.000000	n/a	16	1.250000e-01	1.250000e-01
185.490600	1.367050	dec_social_high	1.367050	32.000000	n/a	16	2.708333e-01	2.708333e-01
185.490600	1.367050	dec_social_accept_high	1.367050	32.000000	n/a	16	2.708333e-01	2.708333e-01
193.141570	1.783338	dec_social_choice	1.783338	32.000000	n/a	8	1.888021e-02	1.888021e-02
193.141570	1.783338	dec_choice	1.783338	32.000000	n/a	8	2.083333e-02	2.083333e-02
193.141570	1.783338	dec_social_accept	1.783338	32.000000	n/a	8	-1.250000e-01	-1.250000e-01
193.141570	1.783338	dec_accept	1.783338	32.000000	n/a	8	-1.250000e-01	-1.250000e-01
193.141570	1.783338	dec_social_accept_high	1.783338	32.000000	n/a	8	2.083333e-02	2.083333e-02
200.792140	1.515375	dec_nonsocial_choice	1.515375	16.000000	n/a	4	1.888021e-02	1.888021e-02
200.792140	1.515375	dec_choice	1.515375	16.000000	n/a	4	1.692708e-02	1.692708e-02
200.792140	1.515375	dec_nonsocial_accept	1.515375	16.000000	n/a	4	-1.250000e-01	-1.250000e-01
200.792140	1.515375	dec_accept	1.515375	16.000000	n/a	4	-1.250000e-01	-1.250000e-01
200.792140	1.515375	dec_nonsocial_high	1.515375	16.000000	n/a	4	1.692708e-02	1.692708e-02
200.792140	1.515375	dec_nonsocial_accept_high	1.515375	16.000000	n/a	4	-1.250000e-01	-1.250000e-01
207.625140	1.399945	dec_nonsocial_choice	1.399945	16.000000	n/a	0	0	-2.311198e-01
207.625140	1.399945	dec_choice	1.399945	16.000000	n/a	0	0	-2.330729e-01
207.625140	1.399945	dec_nonsocial_reject	1.399945	16.000000	n/a	0	0	-2.473958e-02
207.625140	1.399945	dec_reject	1.399945	16.000000	n/a	0	0	-2.864583e-02
207.625140	1.399945	dec_nonsocial_low	1.399945	16.000000	n/a	0	-2.330729e-01	-2.330729e-01
207.625140	1.399945	dec_nonsocial_reject_low	1.399945	16.000000	n/a	1	-2.864583e-02	-9.114583e-02
215.274950	1.265845	dec_nonsocial_choice	1.265845	32.000000	n/a	0	0	-2.311198e-01
215.274950	1.265845	dec_choice	1.265845	32.000000	n/a	0	0	-2.330729e-01
215.274950	1.265845	dec_nonsocial_reject	1.265845	32.000000	n/a	0	0	-2.473958e-02
215.274950	1.265845	dec_reject	1.265845	32.000000	n/a	0	0	-2.864583e-02
215.274950	1.265845	dec_nonsocial_low	1.265845	32.000000	n/a	0	-2.330729e-01	-2.330729e-01
215.274950	1.265845	dec_nonsocial_reject_low	1.265845	32.000000	n/a	2	-2.864583e-02	-9.114583e-02
224.541600	1.232972	dec_nonsocial_choice	1.232972	16.000000	n/a	8	2.688802e-01	2.688802e-01
224.541600	1.232972	dec_choice	1.232972	16.000000	n/a	8	2.669271e-01	2.669271e-01
224.541600	1.232972	dec_nonsocial_accept	1.232972	16.000000	n/a	8	1.250000e-01	1.250000e-01
224.541600	1.232972	dec_accept	1.232972	16.000000	n/a	8	1.250000e-01	1.250000e-01
224.541600	1.232972	dec_nonsocial_accept_high	1.232972	16.000000	n/a	8	1.250000e-01	1.250000e-01
232.191180	1.933397	dec_social_choice	1.933397	32.000000	n/a	8	1.888021e-02	1.888021e-02
232.191180	1.933397	dec_choice	1.933397	32.000000	n/a	8	2.083333e-02	2.083333e-02
232.191180	1.933397	dec_social_accept	1.933397	32.000000	n/a	8	-1.250000e-01	-1.250000e-01
232.191180	1.933397	dec_accept	1.933397	32.000000	n/a	8	-1.250000e-01	-1.250000e-01
232.191180	1.933397	dec_social_accept_high	1.933397	32.000000	n/a	8	2.083333e-02	2.083333e-02
239.024200	1.266508	dec_social_choice	1.266508	32.000000	n/a	0	0	-2.311198e-01
239.024200	1.266508	dec_choice	1.266508	32.000000	n/a	0	0	-2.291667e-01
239.024200	1.266508	dec_social_reject	1.266508	32.000000	n/a	0	0	-2.473958e-02
239.024200	1.266508	dec_reject	1.266508	32.000000	n/a	0	0	-2.083333e-02
239.024200	1.266508	dec_social_reject_low	1.266508	32.000000	n/a	2	-1.666667e-01	-2.291667e-01
245.859200	1.398805	dec_nonsocial_choice	1.398805	16.000000	n/a	0	0	-2.311198e-01
245.859200	1.398805	dec_choice	1.398805	16.000000	n/a	0	0	-2.330729e-01
245.859200	1.398805	dec_nonsocial_reject	1.398805	16.000000	n/a	0	0	3.776042e-02
245.859200	1.398805	dec_reject	1.398805	16.000000	n/a	0	0	3.385417e-02
245.859200	1.398805	dec_nonsocial_low	1.398805	16.000000	n/a	0	-2.330729e-01	-2.330729e-01
245.859200	1.398805	dec_nonsocial_reject_low	1.398805	16.000000	n/a	2	3.385417e-02	-9.114583e-02
252.692210	1.132769	dec_nonsocial_choice	1.132769	32.000000	n/a	16	2.688802e-01	2.688802e-01
252.692210	1.132769	dec_choice	1.132769	32.000000	n/a	16	2.669271e-01	2.669271e-01
252.692210	1.132769	dec_nonsocial_accept	1.132769	32.000000	n/a	16	1.250000e-01	1.250000e-01
252.692210	1.132769	dec_accept	1.132769	32.000000	n/a	16	1.250000e-01	1.250000e-01
252.692210	1.132769	dec_nonsocial_accept_high	1.132769	32.000000	n/a	16	1.250000e-01	1.250000e-01
259.526200	1.348318	dec_nonsocial_choice	1.348318	32.000000	n/a	0	0	-2.311198e-01
259.526200	1.348318	dec_choice	1.348318	32.000000	n/a	0	0	-2.330729e-01
259.526200	1.348318	dec_nonsocial_reject	1.348318	32.000000	n/a	0	0	-2.473958e-02
259.526200	1.348318	dec_reject	1.348318	32.000000	n/a	0	0	-2.864583e-02
259.526200	1.348318	dec_nonsocial_low	1.348318	32.000000	n/a	0	-2.330729e-01	-2.330729e-01
259.526200	1.348318	dec_nonsocial_reject_low	1.348318	32.000000	n/a	2	-2.864583e-02	-9.114583e-02
267.175230	1.999666	dec_nonsocial_choice	1.999666	32.000000	n/a	8	1.888021e-02	1.888021e-02
267.175230	1.999666	dec_choice	1.999666	32.000000	n/a	8	1.692708e-02	1.692708e-02
267.175230	1.999666	dec_nonsocial_accept	1.999666	32.000000	n/a	8	-1.250000e-01	-1.250000e-01
267.175230	1.999666	dec_accept	1.999666	32.000000	n/a	8	-1.250000e-01	-1.250000e-01
267.175230	1.999666	dec_nonsocial_accept_high	1.999666	32.000000	n/a	8	-1.250000e-01	-1.250000e-01
278.041230	1.399995	dec_social_choice	1.399995	16.000000	n/a	0	0	-2.311198e-01
278.041230	1.399995	dec_choice	1.399995	16.000000	n/a	0	0	-2.291667e-01
278.041230	1.399995	dec_social_reject	1.399995	16.000000	n/a	0	0	3.776042e-02
278.041230	1.399995	dec_reject	1.399995	16.000000	n/a	0	0	4.166667e-02
278.041230	1.399995	dec_social_low	1.399995	16.000000	n/a	0	-2.291667e-01	-2.291667e-01
278.041230	1.399995	dec_social_reject_low	1.399995	16.000000	n/a	2	-1.041667e-01	-2.291667e-01
284.874330	1.617187	dec_social_choice	1.617187	32.000000	n/a	8	1.888021e-02	1.888021e-02
284.874330	1.617187	dec_choice	1.617187	32.000000	n/a	8	2.083333e-02	2.083333e-02
284.874330	1.617187	dec_social_accept	1.617187	32.000000	n/a	8	-1.250000e-01	-1.250000e-01
284.874330	1.617187	dec_accept	1.617187	32.000000	n/a	8	-1.250000e-01	-1.250000e-01
284.874330	1.617187	dec_social_accept_high	1.617187	32.000000	n/a	8	2.083333e-02	2.083333e-02
292.507970	1.216408	dec_nonsocial_choice	1.216408	16.000000	n/a	8	2.688802e-01	2.688802e-01
292.507970	1.216408	dec_choice	1.216408	16.000000	n/a	8	2.669271e-01	2.669271e-01
292.507970	1.216408	dec_nonsocial_accept	1.216408	16.000000	n/a	8	1.250000e-01	1.250000e-01
292.507970	1.216408	dec_accept	1.216408	16.000000	n/a	8	1.250000e-01	1.250000e-01
292.507970	1.216408	dec_nonsocial_high	1.216408	16.000000	n/a	8	2.669271e-01	2.669271e-01
292.507970	1.216408	dec_nonsocial_accept_high	1.216408	16.000000	n/a	8	1.250000e-01	1.250000e-01
299.341200	1.682979	dec_social_choice	1.682979	32.000000	n/a	0	0	-2.311198e-01
299.341200	1.682979	dec_choice	1.682979	32.000000	n/a	0	0	-2.291667e-01
299.341200	1.682979	dec_social_reject	1.682979	32.000000	n/a	0	0	6.510417e-03
299.341200	1.682979	dec_reject	1.682979	32.000000	n/a	0	0	1.041667e-02
299.341200	1.682979	dec_social_low	1.682979	32.000000	n/a	0	-2.291667e-01	-2.291667e-01
299.341200	1.682979	dec_social_reject_low	1.682979	32.000000	n/a	3	-1.354167e-01	-2.291667e-01
306.175260	1.199613	dec_social_choice	1.199613	32.000000	n/a	16	2.688802e-01	2.688802e-01
306.175260	1.199613	dec_choice	1.199613	32.000000	n/a	16	2.708333e-01	2.708333e-01
306.175260	1.199613	dec_social_accept	1.199613	32.000000	n/a	16	1.250000e-01	1.250000e-01
306.175260	1.199613	dec_accept	1.199613	32.000000	n/a	16	1.250000e-01	1.250000e-01
306.175260	1.199613	dec_social_accept_high	1.199613	32.000000	n/a	16	2.708333e-01	2.708333e-01
313.825300	1.499544	dec_nonsocial_choice	1.499544	32.000000	n/a	0	0	-2.311198e-01
313.825300	1.499544	dec_choice	1.499544	32.000000	n/a	0	0	-2.330729e-01
313.825300	1.499544	dec_nonsocial_reject	1.499544	32.000000	n/a	0	0	6.510417e-03
313.825300	1.499544	dec_reject	1.499544	32.000000	n/a	0	0	2.604167e-03
313.825300	1.499544	dec_nonsocial_low	1.499544	32.000000	n/a	0	-2.330729e-01	-2.330729e-01
313.825300	1.499544	dec_nonsocial_reject_low	1.499544	32.000000	n/a	3	2.604167e-03	-9.114583e-02
320.659270	1.398459	dec_social_choice	1.398459	16.000000	n/a	0	0	-2.311198e-01
320.659270	1.398459	dec_choice	1.398459	16.000000	n/a	0	0	-2.291667e-01
320.659270	1.398459	dec_social_reject	1.398459	16.000000	n/a	0	0	-2.473958e-02
320.659270	1.398459	dec_reject	1.398459	16.000000	n/a	0	0	-2.083333e-02
320.659270	1.398459	dec_social_low	1.398459	16.000000	n/a	0	-2.291667e-01	-2.291667e-01
320.659270	1.398459	dec_social_reject_low	1.398459	16.000000	n/a	1	-1.666667e-01	-2.291667e-01
329.924300	1.733934	dec_nonsocial_choice	1.733934	32.000000	n/a	8	1.888021e-02	1.888021e-02
329.924300	1.733934	dec_choice	1.733934	32.000000	n/a	8	1.692708e-02	1.692708e-02
329.924300	1.733934	dec_nonsocial_accept	1.733934	32.000000	n/a	8	-1.250000e-01	-1.250000e-01
329.924300	1.733934	dec_accept	1.733934	32.000000	n/a	8	-1.250000e-01	-1.250000e-01
329.924300	1.733934	dec_nonsocial_high	1.733934	32.000000	n/a	8	1.692708e-02	1.692708e-02
329.924300	1.733934	dec_nonsocial_accept_high	1.733934	32.000000	n/a	8	-1.250000e-01	-1.250000e-01
340.793270	1.231558	dec_social_choice	1.231558	32.000000	n/a	0	0	-2.311198e-01
340.793270	1.231558	dec_choice	1.231558	32.000000	n/a	0	0	-2.291667e-01
340.793270	1.231558	dec_social_reject	1.231558	32.000000	n/a	0	0	6.510417e-03
340.793270	1.231558	dec_reject	1.231558	32.000000	n/a	0	0	1.041667e-02
340.793270	1.231558	dec_social_low	1.231558	32.000000	n/a	0	-2.291667e-01	-2.291667e-01
340.793270	1.231558	dec_social_reject_low	1.231558	32.000000	n/a	3	-1.354167e-01	-2.291667e-01
351.658780	1.165374	dec_nonsocial_choice	1.165374	16.000000	n/a	8	2.688802e-01	2.688802e-01
351.658780	1.165374	dec_choice	1.165374	16.000000	n/a	8	2.669271e-01	2.669271e-01
351.658780	1.165374	dec_nonsocial_accept	1.165374	16.000000	n/a	8	1.250000e-01	1.250000e-01
351.658780	1.165374	dec_accept	1.165374	16.000000	n/a	8	1.250000e-01	1.250000e-01
351.658780	1.165374	dec_nonsocial_high	1.165374	16.000000	n/a	8	2.669271e-01	2.669271e-01
351.658780	1.165374	dec_nonsocial_accept_high	1.165374	16.000000	n/a	8	1.250000e-01	1.250000e-01
358.490900	1.150796	dec_social_choice	1.150796	16.000000	n/a	0	0	-2.311198e-01
358.490900	1.150796	dec_choice	1.150796	16.000000	n/a	0	0	-2.291667e-01
358.490900	1.150796	dec_social_reject	1.150796	16.000000	n/a	0	0	-2.473958e-02
358.490900	1.150796	dec_reject	1.150796	16.000000	n/a	0	0	-2.083333e-02
358.490900	1.150796	dec_social_low	1.150796	16.000000	n/a	0	-2.291667e-01	-2.291667e-01
358.490900	1.150796	dec_social_reject_low	1.150796	16.000000	n/a	1	-1.666667e-01	-2.291667e-01
365.325470	1.165528	dec_nonsocial_choice	1.165528	32.000000	n/a	8	1.888021e-02	1.888021e-02
365.325470	1.165528	dec_choice	1.165528	32.000000	n/a	8	1.692708e-02	1.692708e-02
365.325470	1.165528	dec_nonsocial_accept	1.165528	32.000000	n/a	8	-1.250000e-01	-1.250000e-01
365.325470	1.165528	dec_accept	1.165528	32.000000	n/a	8	-1.250000e-01	-1.250000e-01
365.325470	1.165528	dec_nonsocial_high	1.165528	32.000000	n/a	8	1.692708e-02	1.692708e-02
365.325470	1.165528	dec_nonsocial_accept_high	1.165528	32.000000	n/a	8	-1.250000e-01	-1.250000e-01
372.974200	1.617501	dec_social_choice	1.617501	16.000000	n/a	4	1.888021e-02	1.888021e-02
372.974200	1.617501	dec_choice	1.617501	16.000000	n/a	4	2.083333e-02	2.083333e-02
372.974200	1.617501	dec_social_accept	1.617501	16.000000	n/a	4	-1.250000e-01	-1.250000e-01
372.974200	1.617501	dec_accept	1.617501	16.000000	n/a	4	-1.250000e-01	-1.250000e-01
372.974200	1.617501	dec_social_high	1.617501	16.000000	n/a	4	2.083333e-02	2.083333e-02
372.974200	1.617501	dec_social_accept_high	1.617501	16.000000	n/a	4	2.083333e-02	2.083333e-02
