onset	duration	trial_type	response_time	Endowment	Endowment_pmod	Decision	Decision_pmod	Offer_pmod
4.631867	2	cue_social	n/a	32	8	n/a	n/a	n/a
4.631867	2	cue_social_high	n/a	32	7	n/a	n/a	n/a
11.352651	2	cue_nonsocial	n/a	32	7	n/a	n/a	n/a
11.352651	2	cue_nonsocial_high	n/a	32	8	n/a	n/a	n/a
18.186290	2	cue_nonsocial	n/a	16	-9	n/a	n/a	n/a
18.186290	2	cue_nonsocial_low	n/a	16	-8	n/a	n/a	n/a
25.021110	2	cue_nonsocial	n/a	16	-9	n/a	n/a	n/a
25.021110	2	cue_nonsocial_low	n/a	16	-8	n/a	n/a	n/a
31.976210	2	cue_social	n/a	32	8	n/a	n/a	n/a
31.976210	2	cue_social_high	n/a	32	7	n/a	n/a	n/a
38.686280	2	cue_nonsocial	n/a	16	-9	n/a	n/a	n/a
38.686280	2	cue_nonsocial_low	n/a	16	-8	n/a	n/a	n/a
46.335575	2	cue_nonsocial	n/a	32	7	n/a	n/a	n/a
46.335575	2	cue_nonsocial_high	n/a	32	8	n/a	n/a	n/a
53.309765	2	cue_social	n/a	16	-8	n/a	n/a	n/a
53.309765	2	cue_social_low	n/a	16	-9	n/a	n/a	n/a
60.819096	2	cue_nonsocial	n/a	16	-9	n/a	n/a	n/a
60.819096	2	cue_nonsocial_low	n/a	16	-8	n/a	n/a	n/a
67.770070	2	cue_social	n/a	16	-8	n/a	n/a	n/a
67.770070	2	cue_social_low	n/a	16	-9	n/a	n/a	n/a
74.485756	2	cue_nonsocial	n/a	32	7	n/a	n/a	n/a
74.485756	2	cue_nonsocial_high	n/a	32	8	n/a	n/a	n/a
81.318980	2	cue_nonsocial	n/a	16	-9	n/a	n/a	n/a
81.318980	2	cue_nonsocial_low	n/a	16	-8	n/a	n/a	n/a
88.152510	2	cue_nonsocial	n/a	32	7	n/a	n/a	n/a
88.152510	2	cue_nonsocial_high	n/a	32	8	n/a	n/a	n/a
95.911450	2	cue_social	n/a	16	-8	n/a	n/a	n/a
95.911450	2	cue_social_low	n/a	16	-9	n/a	n/a	n/a
102.634930	2	cue_nonsocial	n/a	32	7	n/a	n/a	n/a
102.634930	2	cue_nonsocial_high	n/a	32	8	n/a	n/a	n/a
111.896640	2	cue_social	n/a	16	-8	n/a	n/a	n/a
111.896640	2	cue_social_low	n/a	16	-9	n/a	n/a	n/a
119.555770	2	cue_social	n/a	32	8	n/a	n/a	n/a
119.555770	2	cue_social_high	n/a	32	7	n/a	n/a	n/a
128.802340	2	cue_nonsocial	n/a	32	7	n/a	n/a	n/a
128.802340	2	cue_nonsocial_high	n/a	32	8	n/a	n/a	n/a
139.676470	2	cue_social	n/a	16	-8	n/a	n/a	n/a
139.676470	2	cue_social_low	n/a	16	-9	n/a	n/a	n/a
147.425080	2	cue_social	n/a	16	-8	n/a	n/a	n/a
147.425080	2	cue_social_low	n/a	16	-9	n/a	n/a	n/a
154.152360	2	cue_nonsocial	n/a	16	-9	n/a	n/a	n/a
154.152360	2	cue_nonsocial_low	n/a	16	-8	n/a	n/a	n/a
160.984560	2	cue_nonsocial	n/a	32	7	n/a	n/a	n/a
160.984560	2	cue_nonsocial_high	n/a	32	8	n/a	n/a	n/a
167.818420	2	cue_nonsocial	n/a	16	-9	n/a	n/a	n/a
167.818420	2	cue_nonsocial_low	n/a	16	-8	n/a	n/a	n/a
180.302500	2	cue_nonsocial	n/a	16	-9	n/a	n/a	n/a
180.302500	2	cue_nonsocial_low	n/a	16	-8	n/a	n/a	n/a
187.951970	2	cue_nonsocial	n/a	32	7	n/a	n/a	n/a
187.951970	2	cue_nonsocial_high	n/a	32	8	n/a	n/a	n/a
195.592930	2	cue_social	n/a	32	8	n/a	n/a	n/a
195.592930	2	cue_social_high	n/a	32	7	n/a	n/a	n/a
202.434370	2	cue_nonsocial	n/a	32	7	n/a	n/a	n/a
202.434370	2	cue_nonsocial_high	n/a	32	8	n/a	n/a	n/a
213.423520	2	cue_social	n/a	32	8	n/a	n/a	n/a
213.423520	2	cue_social_high	n/a	32	7	n/a	n/a	n/a
220.151350	2	cue_social	n/a	32	8	n/a	n/a	n/a
220.151350	2	cue_social_high	n/a	32	7	n/a	n/a	n/a
227.794970	2	cue_social	n/a	32	8	n/a	n/a	n/a
227.794970	2	cue_social_high	n/a	32	7	n/a	n/a	n/a
234.664830	2	cue_social	n/a	32	8	n/a	n/a	n/a
234.664830	2	cue_social_high	n/a	32	7	n/a	n/a	n/a
242.251160	2	cue_nonsocial	n/a	16	-9	n/a	n/a	n/a
242.251160	2	cue_nonsocial_low	n/a	16	-8	n/a	n/a	n/a
253.118550	2	cue_nonsocial	n/a	16	-9	n/a	n/a	n/a
253.118550	2	cue_nonsocial_low	n/a	16	-8	n/a	n/a	n/a
259.952100	2	cue_nonsocial	n/a	32	7	n/a	n/a	n/a
259.952100	2	cue_nonsocial_high	n/a	32	8	n/a	n/a	n/a
266.783540	2	cue_social	n/a	16	-8	n/a	n/a	n/a
266.783540	2	cue_social_low	n/a	16	-9	n/a	n/a	n/a
273.717620	2	cue_social	n/a	16	-8	n/a	n/a	n/a
273.717620	2	cue_social_low	n/a	16	-9	n/a	n/a	n/a
280.563000	2	cue_social	n/a	32	8	n/a	n/a	n/a
280.563000	2	cue_social_high	n/a	32	7	n/a	n/a	n/a
289.810850	2	cue_social	n/a	32	8	n/a	n/a	n/a
289.810850	2	cue_social_high	n/a	32	7	n/a	n/a	n/a
297.368320	2	cue_nonsocial	n/a	32	7	n/a	n/a	n/a
297.368320	2	cue_nonsocial_high	n/a	32	8	n/a	n/a	n/a
304.299470	2	cue_social	n/a	16	-8	n/a	n/a	n/a
304.299470	2	cue_social_low	n/a	16	-9	n/a	n/a	n/a
313.544280	2	cue_social	n/a	16	-8	n/a	n/a	n/a
313.544280	2	cue_social_low	n/a	16	-9	n/a	n/a	n/a
320.311650	2	cue_social	n/a	32	8	n/a	n/a	n/a
320.311650	2	cue_social_high	n/a	32	7	n/a	n/a	n/a
327.934630	2	cue_nonsocial	n/a	32	7	n/a	n/a	n/a
327.934630	2	cue_nonsocial_high	n/a	32	8	n/a	n/a	n/a
337.265000	2	cue_social	n/a	16	-8	n/a	n/a	n/a
337.265000	2	cue_social_low	n/a	16	-9	n/a	n/a	n/a
346.434660	2	cue_nonsocial	n/a	32	7	n/a	n/a	n/a
346.434660	2	cue_nonsocial_high	n/a	32	8	n/a	n/a	n/a
353.365000	2	cue_social	n/a	32	8	n/a	n/a	n/a
353.365000	2	cue_social_high	n/a	32	7	n/a	n/a	n/a
360.918200	2	cue_nonsocial	n/a	32	7	n/a	n/a	n/a
360.918200	2	cue_nonsocial_high	n/a	32	8	n/a	n/a	n/a
370.259860	2	cue_social	n/a	16	-8	n/a	n/a	n/a
370.259860	2	cue_social_low	n/a	16	-9	n/a	n/a	n/a
6.523906	1.583546	dec_social_choice	1.583546	32.000000	n/a	2	-1.666667e-01	-1.666667e-01
6.523906	1.583546	dec_choice	1.583546	32.000000	n/a	2	-1.666667e-01	-1.666667e-01
6.523906	1.583546	dec_social_accept	1.583546	32.000000	n/a	2	-9.606481e-02	-9.606481e-02
6.523906	1.583546	dec_accept	1.583546	32.000000	n/a	2	-3.472222e-02	-3.472222e-02
6.523906	1.583546	dec_social_accept_low	1.583546	32.000000	n/a	2	-1.666667e-01	-1.666667e-01
13.358236	1.765761	dec_nonsocial_choice	1.765761	32.000000	n/a	0	0	-2.291667e-01
13.358236	1.765761	dec_choice	1.765761	32.000000	n/a	0	0	-2.291667e-01
13.358236	1.765761	dec_nonsocial_reject	1.765761	32.000000	n/a	0	0	1.800595e-01
13.358236	1.765761	dec_reject	1.765761	32.000000	n/a	0	0	1.510417e-01
13.358236	1.765761	dec_nonsocial_reject_low	1.765761	32.000000	n/a	16	1.916667e-01	-3.083333e-01
20.190912	1.833161	dec_nonsocial_choice	1.833161	16.000000	n/a	0	0	-2.291667e-01
20.190912	1.833161	dec_choice	1.833161	16.000000	n/a	0	0	-2.291667e-01
20.190912	1.833161	dec_nonsocial_reject	1.833161	16.000000	n/a	0	0	-6.994048e-02
20.190912	1.833161	dec_reject	1.833161	16.000000	n/a	0	0	-9.895833e-02
20.190912	1.833161	dec_nonsocial_low	1.833161	16.000000	n/a	0	-2.291667e-01	-2.291667e-01
20.190912	1.833161	dec_nonsocial_reject_low	1.833161	16.000000	n/a	4	-9.895833e-02	-3.489583e-01
27.024063	1.883419	dec_nonsocial_choice	1.883419	16.000000	n/a	1	-1.666667e-01	-1.666667e-01
27.024063	1.883419	dec_choice	1.883419	16.000000	n/a	1	-1.666667e-01	-1.666667e-01
27.024063	1.883419	dec_nonsocial_accept	1.883419	16.000000	n/a	1	-9.606481e-02	-9.606481e-02
27.024063	1.883419	dec_accept	1.883419	16.000000	n/a	1	-1.267361e-01	-1.267361e-01
27.024063	1.883419	dec_nonsocial_accept_low	1.883419	16.000000	n/a	1	-3.472222e-02	-3.472222e-02
33.857407	1.132867	dec_social_choice	1.132867	32.000000	n/a	0	0	-2.291667e-01
33.857407	1.132867	dec_choice	1.132867	32.000000	n/a	0	0	-2.291667e-01
33.857407	1.132867	dec_social_reject	1.132867	32.000000	n/a	0	0	1.800595e-01
33.857407	1.132867	dec_reject	1.132867	32.000000	n/a	0	0	1.916667e-01
33.857407	1.132867	dec_social_low	1.132867	32.000000	n/a	0	-2.291667e-01	-2.291667e-01
33.857407	1.132867	dec_social_reject_low	1.132867	32.000000	n/a	16	2.708333e-01	-2.291667e-01
40.690907	1.333136	dec_nonsocial_choice	1.333136	16.000000	n/a	0	0	-2.291667e-01
40.690907	1.333136	dec_choice	1.333136	16.000000	n/a	0	0	-2.291667e-01
40.690907	1.333136	dec_nonsocial_reject	1.333136	16.000000	n/a	0	0	-6.994048e-02
40.690907	1.333136	dec_reject	1.333136	16.000000	n/a	0	0	-9.895833e-02
40.690907	1.333136	dec_nonsocial_reject_low	1.333136	16.000000	n/a	4	-5.833333e-02	-3.083333e-01
48.341114	1.065976	dec_nonsocial_choice	1.065976	32.000000	n/a	2	-1.666667e-01	-1.666667e-01
48.341114	1.065976	dec_choice	1.065976	32.000000	n/a	2	-1.666667e-01	-1.666667e-01
48.341114	1.065976	dec_nonsocial_accept	1.065976	32.000000	n/a	2	-9.606481e-02	-9.606481e-02
48.341114	1.065976	dec_accept	1.065976	32.000000	n/a	2	-1.267361e-01	-1.267361e-01
48.341114	1.065976	dec_nonsocial_low	1.065976	32.000000	n/a	2	-1.666667e-01	-1.666667e-01
48.341114	1.065976	dec_nonsocial_accept_low	1.065976	32.000000	n/a	2	-1.267361e-01	-1.267361e-01
55.173656	1.183926	dec_social_choice	1.183926	16.000000	n/a	2	-1.041667e-01	-1.041667e-01
55.173656	1.183926	dec_choice	1.183926	16.000000	n/a	2	-1.041667e-01	-1.041667e-01
55.173656	1.183926	dec_social_accept	1.183926	16.000000	n/a	2	-3.356481e-02	-3.356481e-02
55.173656	1.183926	dec_accept	1.183926	16.000000	n/a	2	2.777778e-02	2.777778e-02
55.173656	1.183926	dec_social_accept_low	1.183926	16.000000	n/a	2	-1.041667e-01	-1.041667e-01
62.823353	1.034153	dec_nonsocial_choice	1.034153	16.000000	n/a	1	-1.666667e-01	-1.666667e-01
62.823353	1.034153	dec_choice	1.034153	16.000000	n/a	1	-1.666667e-01	-1.666667e-01
62.823353	1.034153	dec_nonsocial_accept	1.034153	16.000000	n/a	1	-9.606481e-02	-9.606481e-02
62.823353	1.034153	dec_accept	1.034153	16.000000	n/a	1	-1.267361e-01	-1.267361e-01
62.823353	1.034153	dec_nonsocial_accept_low	1.034153	16.000000	n/a	1	-3.472222e-02	-3.472222e-02
69.656715	2.133818	dec_social_choice	2.133818	16.000000	n/a	4	2.083333e-02	2.083333e-02
69.656715	2.133818	dec_choice	2.133818	16.000000	n/a	4	2.083333e-02	2.083333e-02
69.656715	2.133818	dec_social_accept	2.133818	16.000000	n/a	4	9.143519e-02	9.143519e-02
69.656715	2.133818	dec_accept	2.133818	16.000000	n/a	4	1.527778e-01	1.527778e-01
69.656715	2.133818	dec_social_high	2.133818	16.000000	n/a	4	2.083333e-02	2.083333e-02
69.656715	2.133818	dec_social_accept_high	2.133818	16.000000	n/a	4	2.083333e-02	2.083333e-02
76.490770	0.833199	dec_nonsocial_choice	0.833199	32.000000	n/a	2	-1.666667e-01	-1.666667e-01
76.490770	0.833199	dec_choice	0.833199	32.000000	n/a	2	-1.666667e-01	-1.666667e-01
76.490770	0.833199	dec_nonsocial_accept	0.833199	32.000000	n/a	2	-9.606481e-02	-9.606481e-02
76.490770	0.833199	dec_accept	0.833199	32.000000	n/a	2	-1.267361e-01	-1.267361e-01
76.490770	0.833199	dec_nonsocial_accept_low	0.833199	32.000000	n/a	2	-3.472222e-02	-3.472222e-02
83.324760	1.199132	dec_nonsocial_choice	1.199132	16.000000	n/a	0	0	-2.291667e-01
83.324760	1.199132	dec_choice	1.199132	16.000000	n/a	0	0	-2.291667e-01
83.324760	1.199132	dec_nonsocial_reject	1.199132	16.000000	n/a	0	0	1.800595e-01
83.324760	1.199132	dec_reject	1.199132	16.000000	n/a	0	0	1.510417e-01
83.324760	1.199132	dec_nonsocial_low	1.199132	16.000000	n/a	0	-2.291667e-01	-2.291667e-01
83.324760	1.199132	dec_nonsocial_reject_low	1.199132	16.000000	n/a	8	1.510417e-01	-3.489583e-01
90.156710	0.984095	dec_nonsocial_choice	0.984095	32.000000	n/a	3	-1.354167e-01	-1.354167e-01
90.156710	0.984095	dec_choice	0.984095	32.000000	n/a	3	-1.354167e-01	-1.354167e-01
90.156710	0.984095	dec_nonsocial_accept	0.984095	32.000000	n/a	3	-6.481481e-02	-6.481481e-02
90.156710	0.984095	dec_accept	0.984095	32.000000	n/a	3	-9.548611e-02	-9.548611e-02
90.156710	0.984095	dec_nonsocial_accept_low	0.984095	32.000000	n/a	3	-3.472222e-03	-3.472222e-03
97.806810	0.883189	dec_social_choice	0.883189	16.000000	n/a	1	-1.666667e-01	-1.666667e-01
97.806810	0.883189	dec_choice	0.883189	16.000000	n/a	1	-1.666667e-01	-1.666667e-01
97.806810	0.883189	dec_social_accept	0.883189	16.000000	n/a	1	-9.606481e-02	-9.606481e-02
97.806810	0.883189	dec_accept	0.883189	16.000000	n/a	1	-3.472222e-02	-3.472222e-02
97.806810	0.883189	dec_social_accept_low	0.883189	16.000000	n/a	1	-1.666667e-01	-1.666667e-01
104.640690	0.983761	dec_nonsocial_choice	0.983761	32.000000	n/a	0	0	-2.291667e-01
104.640690	0.983761	dec_choice	0.983761	32.000000	n/a	0	0	-2.291667e-01
104.640690	0.983761	dec_nonsocial_reject	0.983761	32.000000	n/a	0	0	-2.261905e-01
104.640690	0.983761	dec_reject	0.983761	32.000000	n/a	0	0	-2.552083e-01
104.640690	0.983761	dec_nonsocial_reject_low	0.983761	32.000000	n/a	3	-2.145833e-01	-3.083333e-01
113.907670	2.249555	dec_social_choice	2.249555	16.000000	n/a	0	0	-2.291667e-01
113.907670	2.249555	dec_choice	2.249555	16.000000	n/a	0	0	-2.291667e-01
113.907670	2.249555	dec_social_reject	2.249555	16.000000	n/a	0	0	-6.994048e-02
113.907670	2.249555	dec_reject	2.249555	16.000000	n/a	0	0	-5.833333e-02
113.907670	2.249555	dec_social_reject_low	2.249555	16.000000	n/a	4	2.083333e-02	-2.291667e-01
121.556550	1.717429	dec_social_choice	1.717429	32.000000	n/a	0	0	-2.291667e-01
121.556550	1.717429	dec_choice	1.717429	32.000000	n/a	0	0	-2.291667e-01
121.556550	1.717429	dec_social_reject	1.717429	32.000000	n/a	0	0	-6.994048e-02
121.556550	1.717429	dec_reject	1.717429	32.000000	n/a	0	0	-5.833333e-02
121.556550	1.717429	dec_social_low	1.717429	32.000000	n/a	0	-2.291667e-01	-2.291667e-01
121.556550	1.717429	dec_social_reject_low	1.717429	32.000000	n/a	8	2.083333e-02	-2.291667e-01
130.807420	1.233183	dec_nonsocial_choice	1.233183	32.000000	n/a	2	-1.666667e-01	-1.666667e-01
130.807420	1.233183	dec_choice	1.233183	32.000000	n/a	2	-1.666667e-01	-1.666667e-01
130.807420	1.233183	dec_nonsocial_accept	1.233183	32.000000	n/a	2	-9.606481e-02	-9.606481e-02
130.807420	1.233183	dec_accept	1.233183	32.000000	n/a	2	-1.267361e-01	-1.267361e-01
130.807420	1.233183	dec_nonsocial_low	1.233183	32.000000	n/a	2	-1.666667e-01	-1.666667e-01
130.807420	1.233183	dec_nonsocial_accept_low	1.233183	32.000000	n/a	2	-1.267361e-01	-1.267361e-01
141.674680	1.315604	dec_social_choice	1.315604	16.000000	n/a	0	0	-2.291667e-01
141.674680	1.315604	dec_choice	1.315604	16.000000	n/a	0	0	-2.291667e-01
141.674680	1.315604	dec_social_reject	1.315604	16.000000	n/a	0	0	-1.949405e-01
141.674680	1.315604	dec_reject	1.315604	16.000000	n/a	0	0	-1.833333e-01
141.674680	1.315604	dec_social_low	1.315604	16.000000	n/a	0	-2.291667e-01	-2.291667e-01
141.674680	1.315604	dec_social_reject_low	1.315604	16.000000	n/a	2	-1.041667e-01	-2.291667e-01
149.324600	1.082820	dec_social_choice	1.082820	16.000000	n/a	0	0	-2.291667e-01
149.324600	1.082820	dec_choice	1.082820	16.000000	n/a	0	0	-2.291667e-01
149.324600	1.082820	dec_social_reject	1.082820	16.000000	n/a	0	0	-6.994048e-02
149.324600	1.082820	dec_reject	1.082820	16.000000	n/a	0	0	-5.833333e-02
149.324600	1.082820	dec_social_low	1.082820	16.000000	n/a	0	-2.291667e-01	-2.291667e-01
149.324600	1.082820	dec_social_reject_low	1.082820	16.000000	n/a	4	2.083333e-02	-2.291667e-01
156.157940	1.515461	dec_nonsocial_choice	1.515461	16.000000	n/a	4	2.083333e-02	2.083333e-02
156.157940	1.515461	dec_choice	1.515461	16.000000	n/a	4	2.083333e-02	2.083333e-02
156.157940	1.515461	dec_nonsocial_accept	1.515461	16.000000	n/a	4	9.143519e-02	9.143519e-02
156.157940	1.515461	dec_accept	1.515461	16.000000	n/a	4	6.076389e-02	6.076389e-02
156.157940	1.515461	dec_nonsocial_accept_high	1.515461	16.000000	n/a	4	1.527778e-01	1.527778e-01
162.990250	1.950117	dec_nonsocial_choice	1.950117	32.000000	n/a	16	2.708333e-01	2.708333e-01
162.990250	1.950117	dec_choice	1.950117	32.000000	n/a	16	2.708333e-01	2.708333e-01
162.990250	1.950117	dec_nonsocial_accept	1.950117	32.000000	n/a	16	3.414352e-01	3.414352e-01
162.990250	1.950117	dec_accept	1.950117	32.000000	n/a	16	3.107639e-01	3.107639e-01
162.990250	1.950117	dec_nonsocial_high	1.950117	32.000000	n/a	16	2.708333e-01	2.708333e-01
162.990250	1.950117	dec_nonsocial_accept_high	1.950117	32.000000	n/a	16	3.107639e-01	3.107639e-01
169.822970	1.234031	dec_nonsocial_choice	1.234031	16.000000	n/a	2	-1.041667e-01	-1.041667e-01
169.822970	1.234031	dec_choice	1.234031	16.000000	n/a	2	-1.041667e-01	-1.041667e-01
169.822970	1.234031	dec_nonsocial_accept	1.234031	16.000000	n/a	2	-3.356481e-02	-3.356481e-02
169.822970	1.234031	dec_accept	1.234031	16.000000	n/a	2	-6.423611e-02	-6.423611e-02
169.822970	1.234031	dec_nonsocial_accept_low	1.234031	16.000000	n/a	2	2.777778e-02	2.777778e-02
182.306640	1.366269	dec_nonsocial_choice	1.366269	16.000000	n/a	4	2.083333e-02	2.083333e-02
182.306640	1.366269	dec_choice	1.366269	16.000000	n/a	4	2.083333e-02	2.083333e-02
182.306640	1.366269	dec_nonsocial_accept	1.366269	16.000000	n/a	4	9.143519e-02	9.143519e-02
182.306640	1.366269	dec_accept	1.366269	16.000000	n/a	4	6.076389e-02	6.076389e-02
182.306640	1.366269	dec_nonsocial_high	1.366269	16.000000	n/a	4	2.083333e-02	2.083333e-02
182.306640	1.366269	dec_nonsocial_accept_high	1.366269	16.000000	n/a	4	6.076389e-02	6.076389e-02
189.957550	1.533087	dec_nonsocial_choice	1.533087	32.000000	n/a	3	-1.354167e-01	-1.354167e-01
189.957550	1.533087	dec_choice	1.533087	32.000000	n/a	3	-1.354167e-01	-1.354167e-01
189.957550	1.533087	dec_nonsocial_accept	1.533087	32.000000	n/a	3	-6.481481e-02	-6.481481e-02
189.957550	1.533087	dec_accept	1.533087	32.000000	n/a	3	-9.548611e-02	-9.548611e-02
189.957550	1.533087	dec_nonsocial_accept_low	1.533087	32.000000	n/a	3	-3.472222e-03	-3.472222e-03
197.607530	0.899422	dec_social_choice	0.899422	32.000000	n/a	3	-1.354167e-01	-1.354167e-01
197.607530	0.899422	dec_choice	0.899422	32.000000	n/a	3	-1.354167e-01	-1.354167e-01
197.607530	0.899422	dec_social_accept	0.899422	32.000000	n/a	3	-6.481481e-02	-6.481481e-02
197.607530	0.899422	dec_accept	0.899422	32.000000	n/a	3	-3.472222e-03	-3.472222e-03
197.607530	0.899422	dec_social_accept_low	0.899422	32.000000	n/a	3	-1.354167e-01	-1.354167e-01
204.440200	1.266876	dec_nonsocial_choice	1.266876	32.000000	n/a	16	2.708333e-01	2.708333e-01
204.440200	1.266876	dec_choice	1.266876	32.000000	n/a	16	2.708333e-01	2.708333e-01
204.440200	1.266876	dec_nonsocial_accept	1.266876	32.000000	n/a	16	3.414352e-01	3.414352e-01
204.440200	1.266876	dec_accept	1.266876	32.000000	n/a	16	3.107639e-01	3.107639e-01
204.440200	1.266876	dec_nonsocial_high	1.266876	32.000000	n/a	16	2.708333e-01	2.708333e-01
204.440200	1.266876	dec_nonsocial_accept_high	1.266876	32.000000	n/a	16	3.107639e-01	3.107639e-01
215.306500	0.983355	dec_social_choice	0.983355	32.000000	n/a	3	-1.354167e-01	-1.354167e-01
215.306500	0.983355	dec_choice	0.983355	32.000000	n/a	3	-1.354167e-01	-1.354167e-01
215.306500	0.983355	dec_social_accept	0.983355	32.000000	n/a	3	-6.481481e-02	-6.481481e-02
215.306500	0.983355	dec_accept	0.983355	32.000000	n/a	3	-3.472222e-03	-3.472222e-03
215.306500	0.983355	dec_social_accept_low	0.983355	32.000000	n/a	3	-1.354167e-01	-1.354167e-01
222.140150	1.083657	dec_social_choice	1.083657	32.000000	n/a	0	0	-2.291667e-01
222.140150	1.083657	dec_choice	1.083657	32.000000	n/a	0	0	-2.291667e-01
222.140150	1.083657	dec_social_reject	1.083657	32.000000	n/a	0	0	-2.574405e-01
222.140150	1.083657	dec_reject	1.083657	32.000000	n/a	0	0	-2.458333e-01
222.140150	1.083657	dec_social_low	1.083657	32.000000	n/a	0	-2.291667e-01	-2.291667e-01
222.140150	1.083657	dec_social_reject_low	1.083657	32.000000	n/a	2	-1.666667e-01	-2.291667e-01
229.791120	1.415404	dec_social_choice	1.415404	32.000000	n/a	0	0	-2.291667e-01
229.791120	1.415404	dec_choice	1.415404	32.000000	n/a	0	0	-2.291667e-01
229.791120	1.415404	dec_social_reject	1.415404	32.000000	n/a	0	0	-2.261905e-01
229.791120	1.415404	dec_reject	1.415404	32.000000	n/a	0	0	-2.145833e-01
229.791120	1.415404	dec_social_low	1.415404	32.000000	n/a	0	-2.291667e-01	-2.291667e-01
229.791120	1.415404	dec_social_reject_low	1.415404	32.000000	n/a	3	-1.354167e-01	-2.291667e-01
236.622700	1.584144	dec_social_choice	1.584144	32.000000	n/a	0	0	-2.291667e-01
236.622700	1.584144	dec_choice	1.584144	32.000000	n/a	0	0	-2.291667e-01
236.622700	1.584144	dec_social_reject	1.584144	32.000000	n/a	0	0	1.800595e-01
236.622700	1.584144	dec_reject	1.584144	32.000000	n/a	0	0	1.916667e-01
236.622700	1.584144	dec_social_reject_low	1.584144	32.000000	n/a	16	2.708333e-01	-2.291667e-01
244.257370	1.215358	dec_nonsocial_choice	1.215358	16.000000	n/a	2	-1.041667e-01	-1.041667e-01
244.257370	1.215358	dec_choice	1.215358	16.000000	n/a	2	-1.041667e-01	-1.041667e-01
244.257370	1.215358	dec_nonsocial_accept	1.215358	16.000000	n/a	2	-3.356481e-02	-3.356481e-02
244.257370	1.215358	dec_accept	1.215358	16.000000	n/a	2	-6.423611e-02	-6.423611e-02
244.257370	1.215358	dec_nonsocial_accept_low	1.215358	16.000000	n/a	2	2.777778e-02	2.777778e-02
255.123660	1.449913	dec_nonsocial_choice	1.449913	16.000000	n/a	4	2.083333e-02	2.083333e-02
255.123660	1.449913	dec_choice	1.449913	16.000000	n/a	4	2.083333e-02	2.083333e-02
255.123660	1.449913	dec_nonsocial_accept	1.449913	16.000000	n/a	4	9.143519e-02	9.143519e-02
255.123660	1.449913	dec_accept	1.449913	16.000000	n/a	4	6.076389e-02	6.076389e-02
255.123660	1.449913	dec_nonsocial_accept_high	1.449913	16.000000	n/a	4	1.527778e-01	1.527778e-01
261.956270	1.366607	dec_nonsocial_choice	1.366607	32.000000	n/a	16	2.708333e-01	2.708333e-01
261.956270	1.366607	dec_choice	1.366607	32.000000	n/a	16	2.708333e-01	2.708333e-01
261.956270	1.366607	dec_nonsocial_accept	1.366607	32.000000	n/a	16	3.414352e-01	3.414352e-01
261.956270	1.366607	dec_accept	1.366607	32.000000	n/a	16	3.107639e-01	3.107639e-01
261.956270	1.366607	dec_nonsocial_accept_high	1.366607	32.000000	n/a	16	4.027778e-01	4.027778e-01
268.789980	1.233363	dec_social_choice	1.233363	16.000000	n/a	0	0	-2.291667e-01
268.789980	1.233363	dec_choice	1.233363	16.000000	n/a	0	0	-2.291667e-01
268.789980	1.233363	dec_social_reject	1.233363	16.000000	n/a	0	0	1.800595e-01
268.789980	1.233363	dec_reject	1.233363	16.000000	n/a	0	0	1.916667e-01
268.789980	1.233363	dec_social_reject_low	1.233363	16.000000	n/a	8	2.708333e-01	-2.291667e-01
275.623320	1.083392	dec_social_choice	1.083392	16.000000	n/a	0	0	-2.291667e-01
275.623320	1.083392	dec_choice	1.083392	16.000000	n/a	0	0	-2.291667e-01
275.623320	1.083392	dec_social_reject	1.083392	16.000000	n/a	0	0	1.800595e-01
275.623320	1.083392	dec_reject	1.083392	16.000000	n/a	0	0	1.916667e-01
275.623320	1.083392	dec_social_reject_low	1.083392	16.000000	n/a	8	2.708333e-01	-2.291667e-01
282.457640	0.998939	dec_social_choice	0.998939	32.000000	n/a	0	0	-2.291667e-01
282.457640	0.998939	dec_choice	0.998939	32.000000	n/a	0	0	-2.291667e-01
282.457640	0.998939	dec_social_reject	0.998939	32.000000	n/a	0	0	-6.994048e-02
282.457640	0.998939	dec_reject	0.998939	32.000000	n/a	0	0	-5.833333e-02
282.457640	0.998939	dec_social_reject_low	0.998939	32.000000	n/a	8	2.083333e-02	-2.291667e-01
291.723330	2.249891	dec_social_choice	2.249891	32.000000	n/a	0	0	-2.291667e-01
291.723330	2.249891	dec_choice	2.249891	32.000000	n/a	0	0	-2.291667e-01
291.723330	2.249891	dec_social_reject	2.249891	32.000000	n/a	0	0	-2.261905e-01
291.723330	2.249891	dec_reject	2.249891	32.000000	n/a	0	0	-2.145833e-01
291.723330	2.249891	dec_social_low	2.249891	32.000000	n/a	0	-2.291667e-01	-2.291667e-01
291.723330	2.249891	dec_social_reject_low	2.249891	32.000000	n/a	3	-1.354167e-01	-2.291667e-01
299.373350	1.000133	dec_nonsocial_choice	1.000133	32.000000	n/a	2	-1.666667e-01	-1.666667e-01
299.373350	1.000133	dec_choice	1.000133	32.000000	n/a	2	-1.666667e-01	-1.666667e-01
299.373350	1.000133	dec_nonsocial_accept	1.000133	32.000000	n/a	2	-9.606481e-02	-9.606481e-02
299.373350	1.000133	dec_accept	1.000133	32.000000	n/a	2	-1.267361e-01	-1.267361e-01
299.373350	1.000133	dec_nonsocial_low	1.000133	32.000000	n/a	2	-1.666667e-01	-1.666667e-01
299.373350	1.000133	dec_nonsocial_accept_low	1.000133	32.000000	n/a	2	-1.267361e-01	-1.267361e-01
306.206360	1.283862	dec_social_choice	1.283862	16.000000	n/a	1	-1.666667e-01	-1.666667e-01
306.206360	1.283862	dec_choice	1.283862	16.000000	n/a	1	-1.666667e-01	-1.666667e-01
306.206360	1.283862	dec_social_accept	1.283862	16.000000	n/a	1	-9.606481e-02	-9.606481e-02
306.206360	1.283862	dec_accept	1.283862	16.000000	n/a	1	-3.472222e-02	-3.472222e-02
306.206360	1.283862	dec_social_low	1.283862	16.000000	n/a	1	-1.666667e-01	-1.666667e-01
306.206360	1.283862	dec_social_accept_low	1.283862	16.000000	n/a	1	-1.666667e-01	-1.666667e-01
315.456420	2.333528	dec_social_choice	2.333528	16.000000	n/a	1	-1.666667e-01	-1.666667e-01
315.456420	2.333528	dec_choice	2.333528	16.000000	n/a	1	-1.666667e-01	-1.666667e-01
315.456420	2.333528	dec_social_accept	2.333528	16.000000	n/a	1	-9.606481e-02	-9.606481e-02
315.456420	2.333528	dec_accept	2.333528	16.000000	n/a	1	-3.472222e-02	-3.472222e-02
315.456420	2.333528	dec_social_low	2.333528	16.000000	n/a	1	-1.666667e-01	-1.666667e-01
315.456420	2.333528	dec_social_accept_low	2.333528	16.000000	n/a	1	-1.666667e-01	-1.666667e-01
322.289500	0.833024	dec_social_choice	0.833024	32.000000	n/a	2	-1.666667e-01	-1.666667e-01
322.289500	0.833024	dec_choice	0.833024	32.000000	n/a	2	-1.666667e-01	-1.666667e-01
322.289500	0.833024	dec_social_accept	0.833024	32.000000	n/a	2	-9.606481e-02	-9.606481e-02
322.289500	0.833024	dec_accept	0.833024	32.000000	n/a	2	-3.472222e-02	-3.472222e-02
322.289500	0.833024	dec_social_low	0.833024	32.000000	n/a	2	-1.666667e-01	-1.666667e-01
322.289500	0.833024	dec_social_accept_low	0.833024	32.000000	n/a	2	-1.666667e-01	-1.666667e-01
329.939760	1.150406	dec_nonsocial_choice	1.150406	32.000000	n/a	0	0	-2.291667e-01
329.939760	1.150406	dec_choice	1.150406	32.000000	n/a	0	0	-2.291667e-01
329.939760	1.150406	dec_nonsocial_reject	1.150406	32.000000	n/a	0	0	1.800595e-01
329.939760	1.150406	dec_reject	1.150406	32.000000	n/a	0	0	1.510417e-01
329.939760	1.150406	dec_nonsocial_reject_low	1.150406	32.000000	n/a	16	1.916667e-01	-3.083333e-01
339.188900	1.167984	dec_social_choice	1.167984	16.000000	n/a	0	0	-2.291667e-01
339.188900	1.167984	dec_choice	1.167984	16.000000	n/a	0	0	-2.291667e-01
339.188900	1.167984	dec_social_reject	1.167984	16.000000	n/a	0	0	1.800595e-01
339.188900	1.167984	dec_reject	1.167984	16.000000	n/a	0	0	1.916667e-01
339.188900	1.167984	dec_social_low	1.167984	16.000000	n/a	0	-2.291667e-01	-2.291667e-01
339.188900	1.167984	dec_social_reject_low	1.167984	16.000000	n/a	8	2.708333e-01	-2.291667e-01
348.440250	2.149404	dec_nonsocial_choice	2.149404	32.000000	n/a	3	-1.354167e-01	-1.354167e-01
348.440250	2.149404	dec_choice	2.149404	32.000000	n/a	3	-1.354167e-01	-1.354167e-01
348.440250	2.149404	dec_nonsocial_accept	2.149404	32.000000	n/a	3	-6.481481e-02	-6.481481e-02
348.440250	2.149404	dec_accept	2.149404	32.000000	n/a	3	-9.548611e-02	-9.548611e-02
348.440250	2.149404	dec_nonsocial_low	2.149404	32.000000	n/a	3	-1.354167e-01	-1.354167e-01
348.440250	2.149404	dec_nonsocial_accept_low	2.149404	32.000000	n/a	3	-9.548611e-02	-9.548611e-02
355.273320	1.815966	dec_social_choice	1.815966	32.000000	n/a	0	0	-2.291667e-01
355.273320	1.815966	dec_choice	1.815966	32.000000	n/a	0	0	-2.291667e-01
355.273320	1.815966	dec_social_reject	1.815966	32.000000	n/a	0	0	1.800595e-01
355.273320	1.815966	dec_reject	1.815966	32.000000	n/a	0	0	1.916667e-01
355.273320	1.815966	dec_social_reject_low	1.815966	32.000000	n/a	16	2.708333e-01	-2.291667e-01
362.923740	1.765698	dec_nonsocial_choice	1.765698	32.000000	n/a	8	2.083333e-02	2.083333e-02
362.923740	1.765698	dec_choice	1.765698	32.000000	n/a	8	2.083333e-02	2.083333e-02
362.923740	1.765698	dec_nonsocial_accept	1.765698	32.000000	n/a	8	9.143519e-02	9.143519e-02
362.923740	1.765698	dec_accept	1.765698	32.000000	n/a	8	6.076389e-02	6.076389e-02
362.923740	1.765698	dec_nonsocial_accept_high	1.765698	32.000000	n/a	8	1.527778e-01	1.527778e-01
372.174200	1.498615	dec_social_choice	1.498615	16.000000	n/a	0	0	-2.291667e-01
372.174200	1.498615	dec_choice	1.498615	16.000000	n/a	0	0	-2.291667e-01
372.174200	1.498615	dec_social_reject	1.498615	16.000000	n/a	0	0	-6.994048e-02
372.174200	1.498615	dec_reject	1.498615	16.000000	n/a	0	0	-5.833333e-02
372.174200	1.498615	dec_social_reject_low	1.498615	16.000000	n/a	4	2.083333e-02	-2.291667e-01
