onset	duration	trial_type	response_time	Endowment	Endowment_pmod	Decision	Decision_pmod	Offer_pmod
4.613213	2	cue_social	n/a	16	-8	n/a	n/a	n/a
4.613213	2	cue_social_low	n/a	16	-8	n/a	n/a	n/a
11.352727	2	cue_social	n/a	32	8	n/a	n/a	n/a
11.352727	2	cue_social_high	n/a	32	8	n/a	n/a	n/a
18.979298	2	cue_nonsocial	n/a	16	-8	n/a	n/a	n/a
18.979298	2	cue_nonsocial_low	n/a	16	-8	n/a	n/a	n/a
28.350994	2	cue_social	n/a	32	8	n/a	n/a	n/a
28.350994	2	cue_social_high	n/a	32	8	n/a	n/a	n/a
35.902374	2	cue_nonsocial	n/a	16	-8	n/a	n/a	n/a
35.902374	2	cue_nonsocial_low	n/a	16	-8	n/a	n/a	n/a
42.818590	2	cue_social	n/a	16	-8	n/a	n/a	n/a
42.818590	2	cue_social_low	n/a	16	-8	n/a	n/a	n/a
50.386158	2	cue_nonsocial	n/a	16	-8	n/a	n/a	n/a
50.386158	2	cue_nonsocial_low	n/a	16	-8	n/a	n/a	n/a
57.218678	2	cue_nonsocial	n/a	16	-8	n/a	n/a	n/a
57.218678	2	cue_nonsocial_low	n/a	16	-8	n/a	n/a	n/a
64.157440	2	cue_social	n/a	16	-8	n/a	n/a	n/a
64.157440	2	cue_social_low	n/a	16	-8	n/a	n/a	n/a
71.702510	2	cue_nonsocial	n/a	32	8	n/a	n/a	n/a
71.702510	2	cue_nonsocial_high	n/a	32	8	n/a	n/a	n/a
82.593414	2	cue_social	n/a	32	8	n/a	n/a	n/a
82.593414	2	cue_social_high	n/a	32	8	n/a	n/a	n/a
91.926506	2	cue_social	n/a	32	8	n/a	n/a	n/a
91.926506	2	cue_social_high	n/a	32	8	n/a	n/a	n/a
98.652390	2	cue_nonsocial	n/a	32	8	n/a	n/a	n/a
98.652390	2	cue_nonsocial_high	n/a	32	8	n/a	n/a	n/a
106.302185	2	cue_nonsocial	n/a	32	8	n/a	n/a	n/a
106.302185	2	cue_nonsocial_high	n/a	32	8	n/a	n/a	n/a
113.246980	2	cue_social	n/a	16	-8	n/a	n/a	n/a
113.246980	2	cue_social_low	n/a	16	-8	n/a	n/a	n/a
120.091050	2	cue_social	n/a	32	8	n/a	n/a	n/a
120.091050	2	cue_social_high	n/a	32	8	n/a	n/a	n/a
127.685140	2	cue_social	n/a	32	8	n/a	n/a	n/a
127.685140	2	cue_social_high	n/a	32	8	n/a	n/a	n/a
134.452470	2	cue_nonsocial	n/a	16	-8	n/a	n/a	n/a
134.452470	2	cue_nonsocial_low	n/a	16	-8	n/a	n/a	n/a
142.209030	2	cue_social	n/a	16	-8	n/a	n/a	n/a
142.209030	2	cue_social_low	n/a	16	-8	n/a	n/a	n/a
151.352110	2	cue_nonsocial	n/a	32	8	n/a	n/a	n/a
151.352110	2	cue_nonsocial_high	n/a	32	8	n/a	n/a	n/a
162.287520	2	cue_social	n/a	16	-8	n/a	n/a	n/a
162.287520	2	cue_social_low	n/a	16	-8	n/a	n/a	n/a
169.055880	2	cue_social	n/a	32	8	n/a	n/a	n/a
169.055880	2	cue_social_high	n/a	32	8	n/a	n/a	n/a
175.993710	2	cue_social	n/a	32	8	n/a	n/a	n/a
175.993710	2	cue_social_high	n/a	32	8	n/a	n/a	n/a
182.718830	2	cue_nonsocial	n/a	32	8	n/a	n/a	n/a
182.718830	2	cue_nonsocial_high	n/a	32	8	n/a	n/a	n/a
192.067640	2	cue_social	n/a	16	-8	n/a	n/a	n/a
192.067640	2	cue_social_low	n/a	16	-8	n/a	n/a	n/a
198.802570	2	cue_nonsocial	n/a	16	-8	n/a	n/a	n/a
198.802570	2	cue_nonsocial_low	n/a	16	-8	n/a	n/a	n/a
205.635620	2	cue_nonsocial	n/a	32	8	n/a	n/a	n/a
205.635620	2	cue_nonsocial_high	n/a	32	8	n/a	n/a	n/a
212.468830	2	cue_nonsocial	n/a	32	8	n/a	n/a	n/a
212.468830	2	cue_nonsocial_high	n/a	32	8	n/a	n/a	n/a
219.402800	2	cue_social	n/a	16	-8	n/a	n/a	n/a
219.402800	2	cue_social_low	n/a	16	-8	n/a	n/a	n/a
231.889540	2	cue_social	n/a	16	-8	n/a	n/a	n/a
231.889540	2	cue_social_low	n/a	16	-8	n/a	n/a	n/a
241.052020	2	cue_nonsocial	n/a	32	8	n/a	n/a	n/a
241.052020	2	cue_nonsocial_high	n/a	32	8	n/a	n/a	n/a
250.302060	2	cue_nonsocial	n/a	32	8	n/a	n/a	n/a
250.302060	2	cue_nonsocial_high	n/a	32	8	n/a	n/a	n/a
257.951480	2	cue_nonsocial	n/a	32	8	n/a	n/a	n/a
257.951480	2	cue_nonsocial_high	n/a	32	8	n/a	n/a	n/a
264.785370	2	cue_nonsocial	n/a	32	8	n/a	n/a	n/a
264.785370	2	cue_nonsocial_high	n/a	32	8	n/a	n/a	n/a
272.508400	2	cue_social	n/a	16	-8	n/a	n/a	n/a
272.508400	2	cue_social_low	n/a	16	-8	n/a	n/a	n/a
279.268250	2	cue_nonsocial	n/a	16	-8	n/a	n/a	n/a
279.268250	2	cue_nonsocial_low	n/a	16	-8	n/a	n/a	n/a
288.618400	2	cue_social	n/a	16	-8	n/a	n/a	n/a
288.618400	2	cue_social_low	n/a	16	-8	n/a	n/a	n/a
299.385600	2	cue_nonsocial	n/a	32	8	n/a	n/a	n/a
299.385600	2	cue_nonsocial_high	n/a	32	8	n/a	n/a	n/a
306.218380	2	cue_nonsocial	n/a	16	-8	n/a	n/a	n/a
306.218380	2	cue_nonsocial_low	n/a	16	-8	n/a	n/a	n/a
313.155550	2	cue_social	n/a	16	-8	n/a	n/a	n/a
313.155550	2	cue_social_low	n/a	16	-8	n/a	n/a	n/a
320.804260	2	cue_social	n/a	32	8	n/a	n/a	n/a
320.804260	2	cue_social_high	n/a	32	8	n/a	n/a	n/a
328.425200	2	cue_social	n/a	32	8	n/a	n/a	n/a
328.425200	2	cue_social_high	n/a	32	8	n/a	n/a	n/a
335.991060	2	cue_social	n/a	32	8	n/a	n/a	n/a
335.991060	2	cue_social_high	n/a	32	8	n/a	n/a	n/a
342.818540	2	cue_nonsocial	n/a	16	-8	n/a	n/a	n/a
342.818540	2	cue_nonsocial_low	n/a	16	-8	n/a	n/a	n/a
350.468100	2	cue_nonsocial	n/a	16	-8	n/a	n/a	n/a
350.468100	2	cue_nonsocial_low	n/a	16	-8	n/a	n/a	n/a
357.307250	2	cue_nonsocial	n/a	16	-8	n/a	n/a	n/a
357.307250	2	cue_nonsocial_low	n/a	16	-8	n/a	n/a	n/a
364.239320	2	cue_social	n/a	32	8	n/a	n/a	n/a
364.239320	2	cue_social_high	n/a	32	8	n/a	n/a	n/a
370.968660	2	cue_nonsocial	n/a	16	-8	n/a	n/a	n/a
370.968660	2	cue_nonsocial_low	n/a	16	-8	n/a	n/a	n/a
6.508008	1.416095	dec_social_choice	1.416095	16.000000	n/a	4	1.888021e-02	1.888021e-02
6.508008	1.416095	dec_choice	1.416095	16.000000	n/a	4	1.822917e-02	1.822917e-02
6.508008	1.416095	dec_social_accept	1.416095	16.000000	n/a	4	-1.171875e-01	-1.171875e-01
6.508008	1.416095	dec_accept	1.416095	16.000000	n/a	4	-1.363636e-01	-1.363636e-01
6.508008	1.416095	dec_social_accept_high	1.416095	16.000000	n/a	4	1.822917e-02	1.822917e-02
13.341661	1.349180	dec_social_choice	1.349180	32.000000	n/a	0	0	-2.311198e-01
13.341661	1.349180	dec_choice	1.349180	32.000000	n/a	0	0	-2.317708e-01
13.341661	1.349180	dec_social_reject	1.349180	32.000000	n/a	0	0	-3.255208e-02
13.341661	1.349180	dec_reject	1.349180	32.000000	n/a	0	0	-3.846154e-02
13.341661	1.349180	dec_social_reject_low	1.349180	32.000000	n/a	2	-1.692708e-01	-2.317708e-01
20.991962	1.199089	dec_nonsocial_choice	1.199089	16.000000	n/a	0	0	-2.311198e-01
20.991962	1.199089	dec_choice	1.199089	16.000000	n/a	0	0	-2.304688e-01
20.991962	1.199089	dec_nonsocial_reject	1.199089	16.000000	n/a	0	0	2.994792e-02
20.991962	1.199089	dec_reject	1.199089	16.000000	n/a	0	0	3.693182e-02
20.991962	1.199089	dec_nonsocial_low	1.199089	16.000000	n/a	0	-2.304688e-01	-2.304688e-01
20.991962	1.199089	dec_nonsocial_reject_low	1.199089	16.000000	n/a	2	3.693182e-02	-8.806818e-02
30.257870	1.783148	dec_social_choice	1.783148	32.000000	n/a	8	1.888021e-02	1.888021e-02
30.257870	1.783148	dec_choice	1.783148	32.000000	n/a	8	1.822917e-02	1.822917e-02
30.257870	1.783148	dec_social_accept	1.783148	32.000000	n/a	8	-1.171875e-01	-1.171875e-01
30.257870	1.783148	dec_accept	1.783148	32.000000	n/a	8	-1.363636e-01	-1.363636e-01
30.257870	1.783148	dec_social_accept_high	1.783148	32.000000	n/a	8	1.822917e-02	1.822917e-02
37.906948	1.300890	dec_nonsocial_choice	1.300890	16.000000	n/a	0	0	-2.311198e-01
37.906948	1.300890	dec_choice	1.300890	16.000000	n/a	0	0	-2.304688e-01
37.906948	1.300890	dec_nonsocial_reject	1.300890	16.000000	n/a	0	0	-3.255208e-02
37.906948	1.300890	dec_reject	1.300890	16.000000	n/a	0	0	-2.556818e-02
37.906948	1.300890	dec_nonsocial_reject_low	1.300890	16.000000	n/a	1	-3.846154e-02	-1.009615e-01
44.740840	1.133115	dec_social_choice	1.133115	16.000000	n/a	0	0	-2.311198e-01
44.740840	1.133115	dec_choice	1.133115	16.000000	n/a	0	0	-2.317708e-01
44.740840	1.133115	dec_social_reject	1.133115	16.000000	n/a	0	0	2.994792e-02
44.740840	1.133115	dec_reject	1.133115	16.000000	n/a	0	0	2.403846e-02
44.740840	1.133115	dec_social_low	1.133115	16.000000	n/a	0	-2.317708e-01	-2.317708e-01
44.740840	1.133115	dec_social_reject_low	1.133115	16.000000	n/a	2	-1.067708e-01	-2.317708e-01
52.391130	1.382672	dec_nonsocial_choice	1.382672	16.000000	n/a	8	2.688802e-01	2.688802e-01
52.391130	1.382672	dec_choice	1.382672	16.000000	n/a	8	2.695312e-01	2.695312e-01
52.391130	1.382672	dec_nonsocial_accept	1.382672	16.000000	n/a	8	1.328125e-01	1.328125e-01
52.391130	1.382672	dec_accept	1.382672	16.000000	n/a	8	1.490385e-01	1.490385e-01
52.391130	1.382672	dec_nonsocial_accept_high	1.382672	16.000000	n/a	8	1.136364e-01	1.136364e-01
59.223953	1.250570	dec_nonsocial_choice	1.250570	16.000000	n/a	0	0	-2.311198e-01
59.223953	1.250570	dec_choice	1.250570	16.000000	n/a	0	0	-2.304688e-01
59.223953	1.250570	dec_nonsocial_reject	1.250570	16.000000	n/a	0	0	-3.255208e-02
59.223953	1.250570	dec_reject	1.250570	16.000000	n/a	0	0	-2.556818e-02
59.223953	1.250570	dec_nonsocial_reject_low	1.250570	16.000000	n/a	1	-3.846154e-02	-1.009615e-01
66.058334	1.249482	dec_social_choice	1.249482	16.000000	n/a	0	0	-2.311198e-01
66.058334	1.249482	dec_choice	1.249482	16.000000	n/a	0	0	-2.317708e-01
66.058334	1.249482	dec_social_reject	1.249482	16.000000	n/a	0	0	-3.255208e-02
66.058334	1.249482	dec_reject	1.249482	16.000000	n/a	0	0	-3.846154e-02
66.058334	1.249482	dec_social_reject_low	1.249482	16.000000	n/a	1	-1.692708e-01	-2.317708e-01
73.706970	0.933939	dec_nonsocial_choice	0.933939	32.000000	n/a	0	0	-2.311198e-01
73.706970	0.933939	dec_choice	0.933939	32.000000	n/a	0	0	-2.304688e-01
73.706970	0.933939	dec_nonsocial_reject	0.933939	32.000000	n/a	0	0	-1.302083e-03
73.706970	0.933939	dec_reject	0.933939	32.000000	n/a	0	0	5.681818e-03
73.706970	0.933939	dec_nonsocial_reject_low	0.933939	32.000000	n/a	3	-7.211538e-03	-1.009615e-01
84.572930	1.384488	dec_social_choice	1.384488	32.000000	n/a	16	2.688802e-01	2.688802e-01
84.572930	1.384488	dec_choice	1.384488	32.000000	n/a	16	2.682292e-01	2.682292e-01
84.572930	1.384488	dec_social_accept	1.384488	32.000000	n/a	16	1.328125e-01	1.328125e-01
84.572930	1.384488	dec_accept	1.384488	32.000000	n/a	16	1.136364e-01	1.136364e-01
84.572930	1.384488	dec_social_high	1.384488	32.000000	n/a	16	2.682292e-01	2.682292e-01
84.572930	1.384488	dec_social_accept_high	1.384488	32.000000	n/a	16	2.682292e-01	2.682292e-01
93.824960	1.865139	dec_social_choice	1.865139	32.000000	n/a	0	0	-2.311198e-01
93.824960	1.865139	dec_choice	1.865139	32.000000	n/a	0	0	-2.317708e-01
93.824960	1.865139	dec_social_reject	1.865139	32.000000	n/a	0	0	-1.302083e-03
93.824960	1.865139	dec_reject	1.865139	32.000000	n/a	0	0	-7.211538e-03
93.824960	1.865139	dec_social_reject_low	1.865139	32.000000	n/a	3	-1.380208e-01	-2.317708e-01
100.657940	1.316414	dec_nonsocial_choice	1.316414	32.000000	n/a	16	2.688802e-01	2.688802e-01
100.657940	1.316414	dec_choice	1.316414	32.000000	n/a	16	2.695312e-01	2.695312e-01
100.657940	1.316414	dec_nonsocial_accept	1.316414	32.000000	n/a	16	1.328125e-01	1.328125e-01
100.657940	1.316414	dec_accept	1.316414	32.000000	n/a	16	1.490385e-01	1.490385e-01
100.657940	1.316414	dec_nonsocial_high	1.316414	32.000000	n/a	16	2.695312e-01	2.695312e-01
100.657940	1.316414	dec_nonsocial_accept_high	1.316414	32.000000	n/a	16	1.490385e-01	1.490385e-01
108.308170	1.483038	dec_nonsocial_choice	1.483038	32.000000	n/a	8	1.888021e-02	1.888021e-02
108.308170	1.483038	dec_choice	1.483038	32.000000	n/a	8	1.953125e-02	1.953125e-02
108.308170	1.483038	dec_nonsocial_accept	1.483038	32.000000	n/a	8	-1.171875e-01	-1.171875e-01
108.308170	1.483038	dec_accept	1.483038	32.000000	n/a	8	-1.009615e-01	-1.009615e-01
108.308170	1.483038	dec_nonsocial_high	1.483038	32.000000	n/a	8	1.953125e-02	1.953125e-02
108.308170	1.483038	dec_nonsocial_accept_high	1.483038	32.000000	n/a	8	-1.009615e-01	-1.009615e-01
115.140950	1.149874	dec_social_choice	1.149874	16.000000	n/a	0	0	-2.311198e-01
115.140950	1.149874	dec_choice	1.149874	16.000000	n/a	0	0	-2.317708e-01
115.140950	1.149874	dec_social_reject	1.149874	16.000000	n/a	0	0	2.994792e-02
115.140950	1.149874	dec_reject	1.149874	16.000000	n/a	0	0	2.403846e-02
115.140950	1.149874	dec_social_reject_low	1.149874	16.000000	n/a	2	-1.067708e-01	-2.317708e-01
121.974190	1.600048	dec_social_choice	1.600048	32.000000	n/a	0	0	-2.311198e-01
121.974190	1.600048	dec_choice	1.600048	32.000000	n/a	0	0	-2.317708e-01
121.974190	1.600048	dec_social_reject	1.600048	32.000000	n/a	0	0	1.549479e-01
121.974190	1.600048	dec_reject	1.600048	32.000000	n/a	0	0	1.490385e-01
121.974190	1.600048	dec_social_reject_low	1.600048	32.000000	n/a	8	1.822917e-02	-2.317708e-01
129.624970	1.182596	dec_social_choice	1.182596	32.000000	n/a	16	2.688802e-01	2.688802e-01
129.624970	1.182596	dec_choice	1.182596	32.000000	n/a	16	2.682292e-01	2.682292e-01
129.624970	1.182596	dec_social_accept	1.182596	32.000000	n/a	16	1.328125e-01	1.328125e-01
129.624970	1.182596	dec_accept	1.182596	32.000000	n/a	16	1.136364e-01	1.136364e-01
129.624970	1.182596	dec_social_high	1.182596	32.000000	n/a	16	2.682292e-01	2.682292e-01
129.624970	1.182596	dec_social_accept_high	1.182596	32.000000	n/a	16	2.682292e-01	2.682292e-01
136.457470	1.699923	dec_nonsocial_choice	1.699923	16.000000	n/a	4	1.888021e-02	1.888021e-02
136.457470	1.699923	dec_choice	1.699923	16.000000	n/a	4	1.953125e-02	1.953125e-02
136.457470	1.699923	dec_nonsocial_accept	1.699923	16.000000	n/a	4	-1.171875e-01	-1.171875e-01
136.457470	1.699923	dec_accept	1.699923	16.000000	n/a	4	-1.009615e-01	-1.009615e-01
136.457470	1.699923	dec_nonsocial_accept_high	1.699923	16.000000	n/a	4	-1.363636e-01	-1.363636e-01
144.106980	1.200095	dec_social_choice	1.200095	16.000000	n/a	0	0	-2.311198e-01
144.106980	1.200095	dec_choice	1.200095	16.000000	n/a	0	0	-2.317708e-01
144.106980	1.200095	dec_social_reject	1.200095	16.000000	n/a	0	0	2.994792e-02
144.106980	1.200095	dec_reject	1.200095	16.000000	n/a	0	0	2.403846e-02
144.106980	1.200095	dec_social_reject_low	1.200095	16.000000	n/a	2	-1.067708e-01	-2.317708e-01
153.357570	1.283376	dec_nonsocial_choice	1.283376	32.000000	n/a	16	2.688802e-01	2.688802e-01
153.357570	1.283376	dec_choice	1.283376	32.000000	n/a	16	2.695312e-01	2.695312e-01
153.357570	1.283376	dec_nonsocial_accept	1.283376	32.000000	n/a	16	1.328125e-01	1.328125e-01
153.357570	1.283376	dec_accept	1.283376	32.000000	n/a	16	1.490385e-01	1.490385e-01
153.357570	1.283376	dec_nonsocial_accept_high	1.283376	32.000000	n/a	16	1.136364e-01	1.136364e-01
164.223280	1.233675	dec_social_choice	1.233675	16.000000	n/a	0	0	-2.311198e-01
164.223280	1.233675	dec_choice	1.233675	16.000000	n/a	0	0	-2.317708e-01
164.223280	1.233675	dec_social_reject	1.233675	16.000000	n/a	0	0	-3.255208e-02
164.223280	1.233675	dec_reject	1.233675	16.000000	n/a	0	0	-3.846154e-02
164.223280	1.233675	dec_social_low	1.233675	16.000000	n/a	0	-2.317708e-01	-2.317708e-01
164.223280	1.233675	dec_social_reject_low	1.233675	16.000000	n/a	1	-1.692708e-01	-2.317708e-01
171.056950	1.350490	dec_social_choice	1.350490	32.000000	n/a	16	2.688802e-01	2.688802e-01
171.056950	1.350490	dec_choice	1.350490	32.000000	n/a	16	2.682292e-01	2.682292e-01
171.056950	1.350490	dec_social_accept	1.350490	32.000000	n/a	16	1.328125e-01	1.328125e-01
171.056950	1.350490	dec_accept	1.350490	32.000000	n/a	16	1.136364e-01	1.136364e-01
171.056950	1.350490	dec_social_high	1.350490	32.000000	n/a	16	2.682292e-01	2.682292e-01
171.056950	1.350490	dec_social_accept_high	1.350490	32.000000	n/a	16	2.682292e-01	2.682292e-01
177.890900	1.433210	dec_social_choice	1.433210	32.000000	n/a	8	1.888021e-02	1.888021e-02
177.890900	1.433210	dec_choice	1.433210	32.000000	n/a	8	1.822917e-02	1.822917e-02
177.890900	1.433210	dec_social_accept	1.433210	32.000000	n/a	8	-1.171875e-01	-1.171875e-01
177.890900	1.433210	dec_accept	1.433210	32.000000	n/a	8	-1.363636e-01	-1.363636e-01
177.890900	1.433210	dec_social_accept_high	1.433210	32.000000	n/a	8	1.822917e-02	1.822917e-02
184.724030	1.433249	dec_nonsocial_choice	1.433249	32.000000	n/a	8	1.888021e-02	1.888021e-02
184.724030	1.433249	dec_choice	1.433249	32.000000	n/a	8	1.953125e-02	1.953125e-02
184.724030	1.433249	dec_nonsocial_accept	1.433249	32.000000	n/a	8	-1.171875e-01	-1.171875e-01
184.724030	1.433249	dec_accept	1.433249	32.000000	n/a	8	-1.009615e-01	-1.009615e-01
184.724030	1.433249	dec_nonsocial_accept_high	1.433249	32.000000	n/a	8	-1.363636e-01	-1.363636e-01
193.974870	1.532889	dec_social_choice	1.532889	16.000000	n/a	8	2.688802e-01	2.688802e-01
193.974870	1.532889	dec_choice	1.532889	16.000000	n/a	8	2.682292e-01	2.682292e-01
193.974870	1.532889	dec_social_accept	1.532889	16.000000	n/a	8	1.328125e-01	1.328125e-01
193.974870	1.532889	dec_accept	1.532889	16.000000	n/a	8	1.136364e-01	1.136364e-01
193.974870	1.532889	dec_social_accept_high	1.532889	16.000000	n/a	8	2.682292e-01	2.682292e-01
200.807860	1.515673	dec_nonsocial_choice	1.515673	16.000000	n/a	0	0	-2.311198e-01
200.807860	1.515673	dec_choice	1.515673	16.000000	n/a	0	0	-2.304688e-01
200.807860	1.515673	dec_nonsocial_reject	1.515673	16.000000	n/a	0	0	2.994792e-02
200.807860	1.515673	dec_reject	1.515673	16.000000	n/a	0	0	3.693182e-02
200.807860	1.515673	dec_nonsocial_reject_low	1.515673	16.000000	n/a	2	2.403846e-02	-1.009615e-01
207.640950	1.433202	dec_nonsocial_choice	1.433202	32.000000	n/a	0	0	-2.311198e-01
207.640950	1.433202	dec_choice	1.433202	32.000000	n/a	0	0	-2.304688e-01
207.640950	1.433202	dec_nonsocial_reject	1.433202	32.000000	n/a	0	0	-3.255208e-02
207.640950	1.433202	dec_reject	1.433202	32.000000	n/a	0	0	-2.556818e-02
207.640950	1.433202	dec_nonsocial_reject_low	1.433202	32.000000	n/a	2	-3.846154e-02	-1.009615e-01
214.474720	1.315512	dec_nonsocial_choice	1.315512	32.000000	n/a	8	1.888021e-02	1.888021e-02
214.474720	1.315512	dec_choice	1.315512	32.000000	n/a	8	1.953125e-02	1.953125e-02
214.474720	1.315512	dec_nonsocial_accept	1.315512	32.000000	n/a	8	-1.171875e-01	-1.171875e-01
214.474720	1.315512	dec_accept	1.315512	32.000000	n/a	8	-1.009615e-01	-1.009615e-01
214.474720	1.315512	dec_nonsocial_high	1.315512	32.000000	n/a	8	1.953125e-02	1.953125e-02
214.474720	1.315512	dec_nonsocial_accept_high	1.315512	32.000000	n/a	8	-1.009615e-01	-1.009615e-01
221.307950	1.282313	dec_social_choice	1.282313	16.000000	n/a	8	2.688802e-01	2.688802e-01
221.307950	1.282313	dec_choice	1.282313	16.000000	n/a	8	2.682292e-01	2.682292e-01
221.307950	1.282313	dec_social_accept	1.282313	16.000000	n/a	8	1.328125e-01	1.328125e-01
221.307950	1.282313	dec_accept	1.282313	16.000000	n/a	8	1.136364e-01	1.136364e-01
221.307950	1.282313	dec_social_accept_high	1.282313	16.000000	n/a	8	2.682292e-01	2.682292e-01
233.790420	1.266581	dec_social_choice	1.266581	16.000000	n/a	0	0	-2.311198e-01
233.790420	1.266581	dec_choice	1.266581	16.000000	n/a	0	0	-2.317708e-01
233.790420	1.266581	dec_social_reject	1.266581	16.000000	n/a	0	0	-3.255208e-02
233.790420	1.266581	dec_reject	1.266581	16.000000	n/a	0	0	-3.846154e-02
233.790420	1.266581	dec_social_low	1.266581	16.000000	n/a	0	-2.317708e-01	-2.317708e-01
233.790420	1.266581	dec_social_reject_low	1.266581	16.000000	n/a	1	-1.692708e-01	-2.317708e-01
243.057220	1.283530	dec_nonsocial_choice	1.283530	32.000000	n/a	0	0	-2.311198e-01
243.057220	1.283530	dec_choice	1.283530	32.000000	n/a	0	0	-2.304688e-01
243.057220	1.283530	dec_nonsocial_reject	1.283530	32.000000	n/a	0	0	-1.302083e-03
243.057220	1.283530	dec_reject	1.283530	32.000000	n/a	0	0	5.681818e-03
243.057220	1.283530	dec_nonsocial_low	1.283530	32.000000	n/a	0	-2.304688e-01	-2.304688e-01
243.057220	1.283530	dec_nonsocial_reject_low	1.283530	32.000000	n/a	3	5.681818e-03	-8.806818e-02
252.307890	1.299481	dec_nonsocial_choice	1.299481	32.000000	n/a	16	2.688802e-01	2.688802e-01
252.307890	1.299481	dec_choice	1.299481	32.000000	n/a	16	2.695312e-01	2.695312e-01
252.307890	1.299481	dec_nonsocial_accept	1.299481	32.000000	n/a	16	1.328125e-01	1.328125e-01
252.307890	1.299481	dec_accept	1.299481	32.000000	n/a	16	1.490385e-01	1.490385e-01
252.307890	1.299481	dec_nonsocial_accept_high	1.299481	32.000000	n/a	16	1.136364e-01	1.136364e-01
259.958070	1.065805	dec_nonsocial_choice	1.065805	32.000000	n/a	2	-1.686198e-01	-1.686198e-01
259.958070	1.065805	dec_choice	1.065805	32.000000	n/a	2	-1.679688e-01	-1.679688e-01
259.958070	1.065805	dec_nonsocial_accept	1.065805	32.000000	n/a	2	-3.046875e-01	-3.046875e-01
259.958070	1.065805	dec_accept	1.065805	32.000000	n/a	2	-2.884615e-01	-2.884615e-01
259.958070	1.065805	dec_nonsocial_low	1.065805	32.000000	n/a	2	-1.679688e-01	-1.679688e-01
259.958070	1.065805	dec_nonsocial_accept_low	1.065805	32.000000	n/a	2	-2.884615e-01	-2.884615e-01
266.790620	2.199934	dec_nonsocial_choice	2.199934	32.000000	n/a	0	0	-2.311198e-01
266.790620	2.199934	dec_choice	2.199934	32.000000	n/a	0	0	-2.304688e-01
266.790620	2.199934	dec_nonsocial_reject	2.199934	32.000000	n/a	0	0	-1.302083e-03
266.790620	2.199934	dec_reject	2.199934	32.000000	n/a	0	0	5.681818e-03
266.790620	2.199934	dec_nonsocial_low	2.199934	32.000000	n/a	0	-2.304688e-01	-2.304688e-01
266.790620	2.199934	dec_nonsocial_reject_low	2.199934	32.000000	n/a	3	5.681818e-03	-8.806818e-02
274.440860	1.149981	dec_social_choice	1.149981	16.000000	n/a	0	0	-2.311198e-01
274.440860	1.149981	dec_choice	1.149981	16.000000	n/a	0	0	-2.317708e-01
274.440860	1.149981	dec_social_reject	1.149981	16.000000	n/a	0	0	2.994792e-02
274.440860	1.149981	dec_reject	1.149981	16.000000	n/a	0	0	2.403846e-02
274.440860	1.149981	dec_social_low	1.149981	16.000000	n/a	0	-2.317708e-01	-2.317708e-01
274.440860	1.149981	dec_social_reject_low	1.149981	16.000000	n/a	2	-1.067708e-01	-2.317708e-01
281.273900	2.200154	dec_nonsocial_choice	2.200154	16.000000	n/a	8	2.688802e-01	2.688802e-01
281.273900	2.200154	dec_choice	2.200154	16.000000	n/a	8	2.695312e-01	2.695312e-01
281.273900	2.200154	dec_nonsocial_accept	2.200154	16.000000	n/a	8	1.328125e-01	1.328125e-01
281.273900	2.200154	dec_accept	2.200154	16.000000	n/a	8	1.490385e-01	1.490385e-01
281.273900	2.200154	dec_nonsocial_high	2.200154	16.000000	n/a	8	2.695312e-01	2.695312e-01
281.273900	2.200154	dec_nonsocial_accept_high	2.200154	16.000000	n/a	8	1.490385e-01	1.490385e-01
290.524350	1.182814	dec_social_choice	1.182814	16.000000	n/a	8	2.688802e-01	2.688802e-01
290.524350	1.182814	dec_choice	1.182814	16.000000	n/a	8	2.682292e-01	2.682292e-01
290.524350	1.182814	dec_social_accept	1.182814	16.000000	n/a	8	1.328125e-01	1.328125e-01
290.524350	1.182814	dec_accept	1.182814	16.000000	n/a	8	1.136364e-01	1.136364e-01
290.524350	1.182814	dec_social_accept_high	1.182814	16.000000	n/a	8	2.682292e-01	2.682292e-01
301.390900	1.299669	dec_nonsocial_choice	1.299669	32.000000	n/a	16	2.688802e-01	2.688802e-01
301.390900	1.299669	dec_choice	1.299669	32.000000	n/a	16	2.695312e-01	2.695312e-01
301.390900	1.299669	dec_nonsocial_accept	1.299669	32.000000	n/a	16	1.328125e-01	1.328125e-01
301.390900	1.299669	dec_accept	1.299669	32.000000	n/a	16	1.490385e-01	1.490385e-01
301.390900	1.299669	dec_nonsocial_accept_high	1.299669	32.000000	n/a	16	1.136364e-01	1.136364e-01
308.223400	1.983722	dec_nonsocial_choice	1.983722	16.000000	n/a	4	1.888021e-02	1.888021e-02
308.223400	1.983722	dec_choice	1.983722	16.000000	n/a	4	1.953125e-02	1.953125e-02
308.223400	1.983722	dec_nonsocial_accept	1.983722	16.000000	n/a	4	-1.171875e-01	-1.171875e-01
308.223400	1.983722	dec_accept	1.983722	16.000000	n/a	4	-1.009615e-01	-1.009615e-01
308.223400	1.983722	dec_nonsocial_accept_high	1.983722	16.000000	n/a	4	-1.363636e-01	-1.363636e-01
315.056980	1.450319	dec_social_choice	1.450319	16.000000	n/a	4	1.888021e-02	1.888021e-02
315.056980	1.450319	dec_choice	1.450319	16.000000	n/a	4	1.822917e-02	1.822917e-02
315.056980	1.450319	dec_social_accept	1.450319	16.000000	n/a	4	-1.171875e-01	-1.171875e-01
315.056980	1.450319	dec_accept	1.450319	16.000000	n/a	4	-1.363636e-01	-1.363636e-01
315.056980	1.450319	dec_social_high	1.450319	16.000000	n/a	4	1.822917e-02	1.822917e-02
315.056980	1.450319	dec_social_accept_high	1.450319	16.000000	n/a	4	1.822917e-02	1.822917e-02
322.690120	1.483573	dec_social_choice	1.483573	32.000000	n/a	0	0	-2.311198e-01
322.690120	1.483573	dec_choice	1.483573	32.000000	n/a	0	0	-2.317708e-01
322.690120	1.483573	dec_social_reject	1.483573	32.000000	n/a	0	0	-3.255208e-02
322.690120	1.483573	dec_reject	1.483573	32.000000	n/a	0	0	-3.846154e-02
322.690120	1.483573	dec_social_low	1.483573	32.000000	n/a	0	-2.317708e-01	-2.317708e-01
322.690120	1.483573	dec_social_reject_low	1.483573	32.000000	n/a	2	-1.692708e-01	-2.317708e-01
330.339900	1.316602	dec_social_choice	1.316602	32.000000	n/a	0	0	-2.311198e-01
330.339900	1.316602	dec_choice	1.316602	32.000000	n/a	0	0	-2.317708e-01
330.339900	1.316602	dec_social_reject	1.316602	32.000000	n/a	0	0	-3.255208e-02
330.339900	1.316602	dec_reject	1.316602	32.000000	n/a	0	0	-3.846154e-02
330.339900	1.316602	dec_social_reject_low	1.316602	32.000000	n/a	2	-1.692708e-01	-2.317708e-01
337.990100	1.616473	dec_social_choice	1.616473	32.000000	n/a	0	0	-2.311198e-01
337.990100	1.616473	dec_choice	1.616473	32.000000	n/a	0	0	-2.317708e-01
337.990100	1.616473	dec_social_reject	1.616473	32.000000	n/a	0	0	-1.302083e-03
337.990100	1.616473	dec_reject	1.616473	32.000000	n/a	0	0	-7.211538e-03
337.990100	1.616473	dec_social_reject_low	1.616473	32.000000	n/a	3	-1.380208e-01	-2.317708e-01
344.824100	1.315893	dec_nonsocial_choice	1.315893	16.000000	n/a	0	0	-2.311198e-01
344.824100	1.315893	dec_choice	1.315893	16.000000	n/a	0	0	-2.304688e-01
344.824100	1.315893	dec_nonsocial_reject	1.315893	16.000000	n/a	0	0	2.994792e-02
344.824100	1.315893	dec_reject	1.315893	16.000000	n/a	0	0	3.693182e-02
344.824100	1.315893	dec_nonsocial_low	1.315893	16.000000	n/a	0	-2.304688e-01	-2.304688e-01
344.824100	1.315893	dec_nonsocial_reject_low	1.315893	16.000000	n/a	2	3.693182e-02	-8.806818e-02
352.474030	1.350030	dec_nonsocial_choice	1.350030	16.000000	n/a	4	1.888021e-02	1.888021e-02
352.474030	1.350030	dec_choice	1.350030	16.000000	n/a	4	1.953125e-02	1.953125e-02
352.474030	1.350030	dec_nonsocial_accept	1.350030	16.000000	n/a	4	-1.171875e-01	-1.171875e-01
352.474030	1.350030	dec_accept	1.350030	16.000000	n/a	4	-1.009615e-01	-1.009615e-01
352.474030	1.350030	dec_nonsocial_accept_high	1.350030	16.000000	n/a	4	-1.363636e-01	-1.363636e-01
359.307000	1.266168	dec_nonsocial_choice	1.266168	16.000000	n/a	0	0	-2.311198e-01
359.307000	1.266168	dec_choice	1.266168	16.000000	n/a	0	0	-2.304688e-01
359.307000	1.266168	dec_nonsocial_reject	1.266168	16.000000	n/a	0	0	-3.255208e-02
359.307000	1.266168	dec_reject	1.266168	16.000000	n/a	0	0	-2.556818e-02
359.307000	1.266168	dec_nonsocial_low	1.266168	16.000000	n/a	0	-2.304688e-01	-2.304688e-01
359.307000	1.266168	dec_nonsocial_reject_low	1.266168	16.000000	n/a	1	-2.556818e-02	-8.806818e-02
366.141050	1.349305	dec_social_choice	1.349305	32.000000	n/a	8	1.888021e-02	1.888021e-02
366.141050	1.349305	dec_choice	1.349305	32.000000	n/a	8	1.822917e-02	1.822917e-02
366.141050	1.349305	dec_social_accept	1.349305	32.000000	n/a	8	-1.171875e-01	-1.171875e-01
366.141050	1.349305	dec_accept	1.349305	32.000000	n/a	8	-1.363636e-01	-1.363636e-01
366.141050	1.349305	dec_social_high	1.349305	32.000000	n/a	8	1.822917e-02	1.822917e-02
366.141050	1.349305	dec_social_accept_high	1.349305	32.000000	n/a	8	1.822917e-02	1.822917e-02
372.973020	1.200618	dec_nonsocial_choice	1.200618	16.000000	n/a	0	0	-2.311198e-01
372.973020	1.200618	dec_choice	1.200618	16.000000	n/a	0	0	-2.304688e-01
372.973020	1.200618	dec_nonsocial_reject	1.200618	16.000000	n/a	0	0	-3.255208e-02
372.973020	1.200618	dec_reject	1.200618	16.000000	n/a	0	0	-2.556818e-02
372.973020	1.200618	dec_nonsocial_reject_low	1.200618	16.000000	n/a	1	-3.846154e-02	-1.009615e-01
