onset	duration	trial_type	response_time	Endowment	Endowment_pmod	Decision	Decision_pmod	Offer_pmod
4.517034	2	cue_social	n/a	32	7	n/a	n/a	n/a
4.517034	2	cue_social_high	n/a	32	9	n/a	n/a	n/a
13.781085	2	cue_nonsocial	n/a	32	9	n/a	n/a	n/a
13.781085	2	cue_nonsocial_high	n/a	32	7	n/a	n/a	n/a
21.545547	2	cue_social	n/a	32	7	n/a	n/a	n/a
21.545547	2	cue_social_high	n/a	32	9	n/a	n/a	n/a
29.081785	2	cue_nonsocial	n/a	32	9	n/a	n/a	n/a
29.081785	2	cue_nonsocial_high	n/a	32	7	n/a	n/a	n/a
36.020935	2	cue_social	n/a	16	-9	n/a	n/a	n/a
36.020935	2	cue_social_low	n/a	16	-7	n/a	n/a	n/a
45.164295	2	cue_nonsocial	n/a	32	9	n/a	n/a	n/a
45.164295	2	cue_nonsocial_high	n/a	32	7	n/a	n/a	n/a
54.431540	2	cue_nonsocial	n/a	32	9	n/a	n/a	n/a
54.431540	2	cue_nonsocial_high	n/a	32	7	n/a	n/a	n/a
61.264810	2	cue_nonsocial	n/a	16	-7	n/a	n/a	n/a
61.264810	2	cue_nonsocial_low	n/a	16	-9	n/a	n/a	n/a
72.227760	2	cue_social	n/a	32	7	n/a	n/a	n/a
72.227760	2	cue_social_high	n/a	32	9	n/a	n/a	n/a
81.507650	2	cue_social	n/a	32	7	n/a	n/a	n/a
81.507650	2	cue_social_high	n/a	32	9	n/a	n/a	n/a
88.220800	2	cue_nonsocial	n/a	32	9	n/a	n/a	n/a
88.220800	2	cue_nonsocial_high	n/a	32	7	n/a	n/a	n/a
95.050680	2	cue_social	n/a	32	7	n/a	n/a	n/a
95.050680	2	cue_social_high	n/a	32	9	n/a	n/a	n/a
104.432350	2	cue_social	n/a	32	7	n/a	n/a	n/a
104.432350	2	cue_social_high	n/a	32	9	n/a	n/a	n/a
111.148060	2	cue_nonsocial	n/a	16	-7	n/a	n/a	n/a
111.148060	2	cue_nonsocial_low	n/a	16	-9	n/a	n/a	n/a
117.980740	2	cue_nonsocial	n/a	16	-7	n/a	n/a	n/a
117.980740	2	cue_nonsocial_low	n/a	16	-9	n/a	n/a	n/a
125.723490	2	cue_social	n/a	16	-9	n/a	n/a	n/a
125.723490	2	cue_social_low	n/a	16	-7	n/a	n/a	n/a
136.498320	2	cue_nonsocial	n/a	16	-7	n/a	n/a	n/a
136.498320	2	cue_nonsocial_low	n/a	16	-9	n/a	n/a	n/a
144.148060	2	cue_nonsocial	n/a	16	-7	n/a	n/a	n/a
144.148060	2	cue_nonsocial_low	n/a	16	-9	n/a	n/a	n/a
151.096010	2	cue_social	n/a	32	7	n/a	n/a	n/a
151.096010	2	cue_social_high	n/a	32	9	n/a	n/a	n/a
157.814040	2	cue_nonsocial	n/a	16	-7	n/a	n/a	n/a
157.814040	2	cue_nonsocial_low	n/a	16	-9	n/a	n/a	n/a
164.758440	2	cue_social	n/a	16	-9	n/a	n/a	n/a
164.758440	2	cue_social_low	n/a	16	-7	n/a	n/a	n/a
175.514590	2	cue_nonsocial	n/a	16	-7	n/a	n/a	n/a
175.514590	2	cue_nonsocial_low	n/a	16	-9	n/a	n/a	n/a
182.446880	2	cue_social	n/a	32	7	n/a	n/a	n/a
182.446880	2	cue_social_high	n/a	32	9	n/a	n/a	n/a
190.112820	2	cue_social	n/a	32	7	n/a	n/a	n/a
190.112820	2	cue_social_high	n/a	32	9	n/a	n/a	n/a
196.831440	2	cue_nonsocial	n/a	16	-7	n/a	n/a	n/a
196.831440	2	cue_nonsocial_low	n/a	16	-9	n/a	n/a	n/a
203.664730	2	cue_nonsocial	n/a	32	9	n/a	n/a	n/a
203.664730	2	cue_nonsocial_high	n/a	32	7	n/a	n/a	n/a
210.497440	2	cue_nonsocial	n/a	16	-7	n/a	n/a	n/a
210.497440	2	cue_nonsocial_low	n/a	16	-9	n/a	n/a	n/a
218.148150	2	cue_nonsocial	n/a	32	9	n/a	n/a	n/a
218.148150	2	cue_nonsocial_high	n/a	32	7	n/a	n/a	n/a
225.899700	2	cue_social	n/a	32	7	n/a	n/a	n/a
225.899700	2	cue_social_high	n/a	32	9	n/a	n/a	n/a
233.447780	2	cue_nonsocial	n/a	32	9	n/a	n/a	n/a
233.447780	2	cue_nonsocial_high	n/a	32	7	n/a	n/a	n/a
240.306720	2	cue_social	n/a	16	-9	n/a	n/a	n/a
240.306720	2	cue_social_low	n/a	16	-7	n/a	n/a	n/a
247.114530	2	cue_nonsocial	n/a	32	9	n/a	n/a	n/a
247.114530	2	cue_nonsocial_high	n/a	32	7	n/a	n/a	n/a
254.063900	2	cue_social	n/a	16	-9	n/a	n/a	n/a
254.063900	2	cue_social_low	n/a	16	-7	n/a	n/a	n/a
266.442870	2	cue_social	n/a	16	-9	n/a	n/a	n/a
266.442870	2	cue_social_low	n/a	16	-7	n/a	n/a	n/a
273.273380	2	cue_social	n/a	16	-9	n/a	n/a	n/a
273.273380	2	cue_social_low	n/a	16	-7	n/a	n/a	n/a
280.098050	2	cue_nonsocial	n/a	32	9	n/a	n/a	n/a
280.098050	2	cue_nonsocial_high	n/a	32	7	n/a	n/a	n/a
286.930540	2	cue_nonsocial	n/a	16	-7	n/a	n/a	n/a
286.930540	2	cue_nonsocial_low	n/a	16	-9	n/a	n/a	n/a
293.852480	2	cue_social	n/a	32	7	n/a	n/a	n/a
293.852480	2	cue_social_high	n/a	32	9	n/a	n/a	n/a
301.496200	2	cue_social	n/a	16	-9	n/a	n/a	n/a
301.496200	2	cue_social_low	n/a	16	-7	n/a	n/a	n/a
308.343600	2	cue_social	n/a	16	-9	n/a	n/a	n/a
308.343600	2	cue_social_low	n/a	16	-7	n/a	n/a	n/a
315.890930	2	cue_social	n/a	16	-9	n/a	n/a	n/a
315.890930	2	cue_social_low	n/a	16	-7	n/a	n/a	n/a
322.715330	2	cue_social	n/a	32	7	n/a	n/a	n/a
322.715330	2	cue_social_high	n/a	32	9	n/a	n/a	n/a
329.547640	2	cue_nonsocial	n/a	32	9	n/a	n/a	n/a
329.547640	2	cue_nonsocial_high	n/a	32	7	n/a	n/a	n/a
338.798000	2	cue_nonsocial	n/a	16	-7	n/a	n/a	n/a
338.798000	2	cue_nonsocial_low	n/a	16	-9	n/a	n/a	n/a
348.162260	2	cue_social	n/a	32	7	n/a	n/a	n/a
348.162260	2	cue_social_high	n/a	32	9	n/a	n/a	n/a
355.697660	2	cue_nonsocial	n/a	16	-7	n/a	n/a	n/a
355.697660	2	cue_nonsocial_low	n/a	16	-9	n/a	n/a	n/a
363.448850	2	cue_social	n/a	16	-9	n/a	n/a	n/a
363.448850	2	cue_social_low	n/a	16	-7	n/a	n/a	n/a
370.180880	2	cue_nonsocial	n/a	16	-7	n/a	n/a	n/a
370.180880	2	cue_nonsocial_low	n/a	16	-9	n/a	n/a	n/a
6.520875	1.115551	dec_social_choice	1.115551	32.000000	n/a	16	2.708333e-01	2.708333e-01
6.520875	1.115551	dec_choice	1.115551	32.000000	n/a	16	2.708333e-01	2.708333e-01
6.520875	1.115551	dec_social_accept	1.115551	32.000000	n/a	16	1.678241e-01	1.678241e-01
6.520875	1.115551	dec_accept	1.115551	32.000000	n/a	16	1.586538e-01	1.586538e-01
6.520875	1.115551	dec_social_high	1.115551	32.000000	n/a	16	2.708333e-01	2.708333e-01
6.520875	1.115551	dec_social_accept_high	1.115551	32.000000	n/a	16	2.708333e-01	2.708333e-01
15.786986	2.449712	dec_nonsocial_choice	2.449712	32.000000	n/a	3	-1.354167e-01	-1.354167e-01
15.786986	2.449712	dec_choice	2.449712	32.000000	n/a	3	-1.354167e-01	-1.354167e-01
15.786986	2.449712	dec_nonsocial_accept	2.449712	32.000000	n/a	3	-2.384259e-01	-2.384259e-01
15.786986	2.449712	dec_accept	2.449712	32.000000	n/a	3	-2.299107e-01	-2.299107e-01
15.786986	2.449712	dec_nonsocial_accept_low	2.449712	32.000000	n/a	3	-2.475962e-01	-2.475962e-01
23.436913	1.699804	dec_social_choice	1.699804	32.000000	n/a	8	2.083333e-02	2.083333e-02
23.436913	1.699804	dec_choice	1.699804	32.000000	n/a	8	2.083333e-02	2.083333e-02
23.436913	1.699804	dec_social_accept	1.699804	32.000000	n/a	8	-8.217593e-02	-8.217593e-02
23.436913	1.699804	dec_accept	1.699804	32.000000	n/a	8	-9.134615e-02	-9.134615e-02
23.436913	1.699804	dec_social_high	1.699804	32.000000	n/a	8	2.083333e-02	2.083333e-02
23.436913	1.699804	dec_social_accept_high	1.699804	32.000000	n/a	8	2.083333e-02	2.083333e-02
31.086979	1.166034	dec_nonsocial_choice	1.166034	32.000000	n/a	16	2.708333e-01	2.708333e-01
31.086979	1.166034	dec_choice	1.166034	32.000000	n/a	16	2.708333e-01	2.708333e-01
31.086979	1.166034	dec_nonsocial_accept	1.166034	32.000000	n/a	16	1.678241e-01	1.678241e-01
31.086979	1.166034	dec_accept	1.166034	32.000000	n/a	16	1.763393e-01	1.763393e-01
31.086979	1.166034	dec_nonsocial_high	1.166034	32.000000	n/a	16	2.708333e-01	2.708333e-01
31.086979	1.166034	dec_nonsocial_accept_high	1.166034	32.000000	n/a	16	1.763393e-01	1.763393e-01
37.919945	1.416390	dec_social_choice	1.416390	16.000000	n/a	4	2.083333e-02	2.083333e-02
37.919945	1.416390	dec_choice	1.416390	16.000000	n/a	4	2.083333e-02	2.083333e-02
37.919945	1.416390	dec_social_accept	1.416390	16.000000	n/a	4	-8.217593e-02	-8.217593e-02
37.919945	1.416390	dec_accept	1.416390	16.000000	n/a	4	-9.134615e-02	-9.134615e-02
37.919945	1.416390	dec_social_accept_high	1.416390	16.000000	n/a	4	2.083333e-02	2.083333e-02
47.169903	1.016915	dec_nonsocial_choice	1.016915	32.000000	n/a	16	2.708333e-01	2.708333e-01
47.169903	1.016915	dec_choice	1.016915	32.000000	n/a	16	2.708333e-01	2.708333e-01
47.169903	1.016915	dec_nonsocial_accept	1.016915	32.000000	n/a	16	1.678241e-01	1.678241e-01
47.169903	1.016915	dec_accept	1.016915	32.000000	n/a	16	1.763393e-01	1.763393e-01
47.169903	1.016915	dec_nonsocial_accept_high	1.016915	32.000000	n/a	16	1.586538e-01	1.586538e-01
56.436913	1.016109	dec_nonsocial_choice	1.016109	32.000000	n/a	16	2.708333e-01	2.708333e-01
56.436913	1.016109	dec_choice	1.016109	32.000000	n/a	16	2.708333e-01	2.708333e-01
56.436913	1.016109	dec_nonsocial_accept	1.016109	32.000000	n/a	16	1.678241e-01	1.678241e-01
56.436913	1.016109	dec_accept	1.016109	32.000000	n/a	16	1.763393e-01	1.763393e-01
56.436913	1.016109	dec_nonsocial_accept_high	1.016109	32.000000	n/a	16	1.586538e-01	1.586538e-01
63.269897	1.833052	dec_nonsocial_choice	1.833052	16.000000	n/a	0	0	-2.291667e-01
63.269897	1.833052	dec_choice	1.833052	16.000000	n/a	0	0	-2.291667e-01
63.269897	1.833052	dec_nonsocial_reject	1.833052	16.000000	n/a	0	0	-3.422619e-02
63.269897	1.833052	dec_reject	1.833052	16.000000	n/a	0	0	-3.437500e-02
63.269897	1.833052	dec_nonsocial_reject_low	1.833052	16.000000	n/a	1	-3.409091e-02	-9.659091e-02
74.136660	1.300180	dec_social_choice	1.300180	32.000000	n/a	8	2.083333e-02	2.083333e-02
74.136660	1.300180	dec_choice	1.300180	32.000000	n/a	8	2.083333e-02	2.083333e-02
74.136660	1.300180	dec_social_accept	1.300180	32.000000	n/a	8	-8.217593e-02	-8.217593e-02
74.136660	1.300180	dec_accept	1.300180	32.000000	n/a	8	-9.134615e-02	-9.134615e-02
74.136660	1.300180	dec_social_accept_high	1.300180	32.000000	n/a	8	2.083333e-02	2.083333e-02
83.385990	1.583445	dec_social_choice	1.583445	32.000000	n/a	3	-1.354167e-01	-1.354167e-01
83.385990	1.583445	dec_choice	1.583445	32.000000	n/a	3	-1.354167e-01	-1.354167e-01
83.385990	1.583445	dec_social_accept	1.583445	32.000000	n/a	3	-2.384259e-01	-2.384259e-01
83.385990	1.583445	dec_accept	1.583445	32.000000	n/a	3	-2.475962e-01	-2.475962e-01
83.385990	1.583445	dec_social_accept_low	1.583445	32.000000	n/a	3	-1.354167e-01	-1.354167e-01
90.219890	2.033495	dec_nonsocial_choice	2.033495	32.000000	n/a	0	0	-2.291667e-01
90.219890	2.033495	dec_choice	2.033495	32.000000	n/a	0	0	-2.291667e-01
90.219890	2.033495	dec_nonsocial_reject	2.033495	32.000000	n/a	0	0	-2.976190e-03
90.219890	2.033495	dec_reject	2.033495	32.000000	n/a	0	0	-3.125000e-03
90.219890	2.033495	dec_nonsocial_low	2.033495	32.000000	n/a	0	-2.291667e-01	-2.291667e-01
90.219890	2.033495	dec_nonsocial_reject_low	2.033495	32.000000	n/a	3	-3.125000e-03	-9.687500e-02
97.053910	1.315315	dec_social_choice	1.315315	32.000000	n/a	16	2.708333e-01	2.708333e-01
97.053910	1.315315	dec_choice	1.315315	32.000000	n/a	16	2.708333e-01	2.708333e-01
97.053910	1.315315	dec_social_accept	1.315315	32.000000	n/a	16	1.678241e-01	1.678241e-01
97.053910	1.315315	dec_accept	1.315315	32.000000	n/a	16	1.586538e-01	1.586538e-01
97.053910	1.315315	dec_social_high	1.315315	32.000000	n/a	16	2.708333e-01	2.708333e-01
97.053910	1.315315	dec_social_accept_high	1.315315	32.000000	n/a	16	2.708333e-01	2.708333e-01
106.320350	1.415894	dec_social_choice	1.415894	32.000000	n/a	0	0	-2.291667e-01
106.320350	1.415894	dec_choice	1.415894	32.000000	n/a	0	0	-2.291667e-01
106.320350	1.415894	dec_social_reject	1.415894	32.000000	n/a	0	0	-2.976190e-03
106.320350	1.415894	dec_reject	1.415894	32.000000	n/a	0	0	-2.840909e-03
106.320350	1.415894	dec_social_reject_low	1.415894	32.000000	n/a	3	-1.354167e-01	-2.291667e-01
113.153050	1.066762	dec_nonsocial_choice	1.066762	16.000000	n/a	0	0	-2.291667e-01
113.153050	1.066762	dec_choice	1.066762	16.000000	n/a	0	0	-2.291667e-01
113.153050	1.066762	dec_nonsocial_reject	1.066762	16.000000	n/a	0	0	2.827381e-02
113.153050	1.066762	dec_reject	1.066762	16.000000	n/a	0	0	2.812500e-02
113.153050	1.066762	dec_nonsocial_reject_low	1.066762	16.000000	n/a	2	2.840909e-02	-9.659091e-02
119.986790	1.183174	dec_nonsocial_choice	1.183174	16.000000	n/a	4	2.083333e-02	2.083333e-02
119.986790	1.183174	dec_choice	1.183174	16.000000	n/a	4	2.083333e-02	2.083333e-02
119.986790	1.183174	dec_nonsocial_accept	1.183174	16.000000	n/a	4	-8.217593e-02	-8.217593e-02
119.986790	1.183174	dec_accept	1.183174	16.000000	n/a	4	-7.366071e-02	-7.366071e-02
119.986790	1.183174	dec_nonsocial_high	1.183174	16.000000	n/a	4	2.083333e-02	2.083333e-02
119.986790	1.183174	dec_nonsocial_accept_high	1.183174	16.000000	n/a	4	-7.366071e-02	-7.366071e-02
127.636220	1.566763	dec_social_choice	1.566763	16.000000	n/a	0	0	-2.291667e-01
127.636220	1.566763	dec_choice	1.566763	16.000000	n/a	0	0	-2.291667e-01
127.636220	1.566763	dec_social_reject	1.566763	16.000000	n/a	0	0	1.532738e-01
127.636220	1.566763	dec_reject	1.566763	16.000000	n/a	0	0	1.534091e-01
127.636220	1.566763	dec_social_low	1.566763	16.000000	n/a	0	-2.291667e-01	-2.291667e-01
127.636220	1.566763	dec_social_reject_low	1.566763	16.000000	n/a	4	2.083333e-02	-2.291667e-01
138.503980	1.482678	dec_nonsocial_choice	1.482678	16.000000	n/a	4	2.083333e-02	2.083333e-02
138.503980	1.482678	dec_choice	1.482678	16.000000	n/a	4	2.083333e-02	2.083333e-02
138.503980	1.482678	dec_nonsocial_accept	1.482678	16.000000	n/a	4	-8.217593e-02	-8.217593e-02
138.503980	1.482678	dec_accept	1.482678	16.000000	n/a	4	-7.366071e-02	-7.366071e-02
138.503980	1.482678	dec_nonsocial_high	1.482678	16.000000	n/a	4	2.083333e-02	2.083333e-02
138.503980	1.482678	dec_nonsocial_accept_high	1.482678	16.000000	n/a	4	-7.366071e-02	-7.366071e-02
146.153960	1.382566	dec_nonsocial_choice	1.382566	16.000000	n/a	8	2.708333e-01	2.708333e-01
146.153960	1.382566	dec_choice	1.382566	16.000000	n/a	8	2.708333e-01	2.708333e-01
146.153960	1.382566	dec_nonsocial_accept	1.382566	16.000000	n/a	8	1.678241e-01	1.678241e-01
146.153960	1.382566	dec_accept	1.382566	16.000000	n/a	8	1.763393e-01	1.763393e-01
146.153960	1.382566	dec_nonsocial_accept_high	1.382566	16.000000	n/a	8	1.586538e-01	1.586538e-01
152.986800	1.632601	dec_social_choice	1.632601	32.000000	n/a	16	2.708333e-01	2.708333e-01
152.986800	1.632601	dec_choice	1.632601	32.000000	n/a	16	2.708333e-01	2.708333e-01
152.986800	1.632601	dec_social_accept	1.632601	32.000000	n/a	16	1.678241e-01	1.678241e-01
152.986800	1.632601	dec_accept	1.632601	32.000000	n/a	16	1.586538e-01	1.586538e-01
152.986800	1.632601	dec_social_accept_high	1.632601	32.000000	n/a	16	2.708333e-01	2.708333e-01
159.819900	1.466170	dec_nonsocial_choice	1.466170	16.000000	n/a	0	0	-2.291667e-01
159.819900	1.466170	dec_choice	1.466170	16.000000	n/a	0	0	-2.291667e-01
159.819900	1.466170	dec_nonsocial_reject	1.466170	16.000000	n/a	0	0	-3.422619e-02
159.819900	1.466170	dec_reject	1.466170	16.000000	n/a	0	0	-3.437500e-02
159.819900	1.466170	dec_nonsocial_low	1.466170	16.000000	n/a	0	-2.291667e-01	-2.291667e-01
159.819900	1.466170	dec_nonsocial_reject_low	1.466170	16.000000	n/a	1	-3.437500e-02	-9.687500e-02
166.653990	1.482500	dec_social_choice	1.482500	16.000000	n/a	8	2.708333e-01	2.708333e-01
166.653990	1.482500	dec_choice	1.482500	16.000000	n/a	8	2.708333e-01	2.708333e-01
166.653990	1.482500	dec_social_accept	1.482500	16.000000	n/a	8	1.678241e-01	1.678241e-01
166.653990	1.482500	dec_accept	1.482500	16.000000	n/a	8	1.586538e-01	1.586538e-01
166.653990	1.482500	dec_social_accept_high	1.482500	16.000000	n/a	8	2.708333e-01	2.708333e-01
177.519650	1.450103	dec_nonsocial_choice	1.450103	16.000000	n/a	0	0	-2.291667e-01
177.519650	1.450103	dec_choice	1.450103	16.000000	n/a	0	0	-2.291667e-01
177.519650	1.450103	dec_nonsocial_reject	1.450103	16.000000	n/a	0	0	-3.422619e-02
177.519650	1.450103	dec_reject	1.450103	16.000000	n/a	0	0	-3.437500e-02
177.519650	1.450103	dec_nonsocial_low	1.450103	16.000000	n/a	0	-2.291667e-01	-2.291667e-01
177.519650	1.450103	dec_nonsocial_reject_low	1.450103	16.000000	n/a	1	-3.437500e-02	-9.687500e-02
184.353000	1.333556	dec_social_choice	1.333556	32.000000	n/a	3	-1.354167e-01	-1.354167e-01
184.353000	1.333556	dec_choice	1.333556	32.000000	n/a	3	-1.354167e-01	-1.354167e-01
184.353000	1.333556	dec_social_accept	1.333556	32.000000	n/a	3	-2.384259e-01	-2.384259e-01
184.353000	1.333556	dec_accept	1.333556	32.000000	n/a	3	-2.475962e-01	-2.475962e-01
184.353000	1.333556	dec_social_low	1.333556	32.000000	n/a	3	-1.354167e-01	-1.354167e-01
184.353000	1.333556	dec_social_accept_low	1.333556	32.000000	n/a	3	-1.354167e-01	-1.354167e-01
192.003270	1.633205	dec_social_choice	1.633205	32.000000	n/a	0	0	-2.291667e-01
192.003270	1.633205	dec_choice	1.633205	32.000000	n/a	0	0	-2.291667e-01
192.003270	1.633205	dec_social_reject	1.633205	32.000000	n/a	0	0	-2.976190e-03
192.003270	1.633205	dec_reject	1.633205	32.000000	n/a	0	0	-2.840909e-03
192.003270	1.633205	dec_social_low	1.633205	32.000000	n/a	0	-2.291667e-01	-2.291667e-01
192.003270	1.633205	dec_social_reject_low	1.633205	32.000000	n/a	3	-1.354167e-01	-2.291667e-01
198.837430	1.848943	dec_nonsocial_choice	1.848943	16.000000	n/a	0	0	-2.291667e-01
198.837430	1.848943	dec_choice	1.848943	16.000000	n/a	0	0	-2.291667e-01
198.837430	1.848943	dec_nonsocial_reject	1.848943	16.000000	n/a	0	0	1.532738e-01
198.837430	1.848943	dec_reject	1.848943	16.000000	n/a	0	0	1.531250e-01
198.837430	1.848943	dec_nonsocial_low	1.848943	16.000000	n/a	0	-2.291667e-01	-2.291667e-01
198.837430	1.848943	dec_nonsocial_reject_low	1.848943	16.000000	n/a	4	1.531250e-01	-9.687500e-02
205.669890	1.283333	dec_nonsocial_choice	1.283333	32.000000	n/a	0	0	-2.291667e-01
205.669890	1.283333	dec_choice	1.283333	32.000000	n/a	0	0	-2.291667e-01
205.669890	1.283333	dec_nonsocial_reject	1.283333	32.000000	n/a	0	0	-3.422619e-02
205.669890	1.283333	dec_reject	1.283333	32.000000	n/a	0	0	-3.437500e-02
205.669890	1.283333	dec_nonsocial_low	1.283333	32.000000	n/a	0	-2.291667e-01	-2.291667e-01
205.669890	1.283333	dec_nonsocial_reject_low	1.283333	32.000000	n/a	2	-3.437500e-02	-9.687500e-02
212.503940	1.349173	dec_nonsocial_choice	1.349173	16.000000	n/a	2	-1.041667e-01	-1.041667e-01
212.503940	1.349173	dec_choice	1.349173	16.000000	n/a	2	-1.041667e-01	-1.041667e-01
212.503940	1.349173	dec_nonsocial_accept	1.349173	16.000000	n/a	2	-2.071759e-01	-2.071759e-01
212.503940	1.349173	dec_accept	1.349173	16.000000	n/a	2	-1.986607e-01	-1.986607e-01
212.503940	1.349173	dec_nonsocial_accept_low	1.349173	16.000000	n/a	2	-2.163462e-01	-2.163462e-01
220.152970	1.683623	dec_nonsocial_choice	1.683623	32.000000	n/a	2	-1.666667e-01	-1.666667e-01
220.152970	1.683623	dec_choice	1.683623	32.000000	n/a	2	-1.666667e-01	-1.666667e-01
220.152970	1.683623	dec_nonsocial_accept	1.683623	32.000000	n/a	2	-2.696759e-01	-2.696759e-01
220.152970	1.683623	dec_accept	1.683623	32.000000	n/a	2	-2.611607e-01	-2.611607e-01
220.152970	1.683623	dec_nonsocial_low	1.683623	32.000000	n/a	2	-1.666667e-01	-1.666667e-01
220.152970	1.683623	dec_nonsocial_accept_low	1.683623	32.000000	n/a	2	-2.611607e-01	-2.611607e-01
227.803920	1.815341	dec_social_choice	1.815341	32.000000	n/a	0	0	-2.291667e-01
227.803920	1.815341	dec_choice	1.815341	32.000000	n/a	0	0	-2.291667e-01
227.803920	1.815341	dec_social_reject	1.815341	32.000000	n/a	0	0	-3.422619e-02
227.803920	1.815341	dec_reject	1.815341	32.000000	n/a	0	0	-3.409091e-02
227.803920	1.815341	dec_social_reject_low	1.815341	32.000000	n/a	2	-1.666667e-01	-2.291667e-01
235.453950	1.648816	dec_nonsocial_choice	1.648816	32.000000	n/a	16	2.708333e-01	2.708333e-01
235.453950	1.648816	dec_choice	1.648816	32.000000	n/a	16	2.708333e-01	2.708333e-01
235.453950	1.648816	dec_nonsocial_accept	1.648816	32.000000	n/a	16	1.678241e-01	1.678241e-01
235.453950	1.648816	dec_accept	1.648816	32.000000	n/a	16	1.763393e-01	1.763393e-01
235.453950	1.648816	dec_nonsocial_accept_high	1.648816	32.000000	n/a	16	1.586538e-01	1.586538e-01
242.286090	1.333488	dec_social_choice	1.333488	16.000000	n/a	0	0	-2.291667e-01
242.286090	1.333488	dec_choice	1.333488	16.000000	n/a	0	0	-2.291667e-01
242.286090	1.333488	dec_social_reject	1.333488	16.000000	n/a	0	0	-3.422619e-02
242.286090	1.333488	dec_reject	1.333488	16.000000	n/a	0	0	-3.409091e-02
242.286090	1.333488	dec_social_reject_low	1.333488	16.000000	n/a	1	-1.666667e-01	-2.291667e-01
249.118900	1.484012	dec_nonsocial_choice	1.484012	32.000000	n/a	0	0	-2.291667e-01
249.118900	1.484012	dec_choice	1.484012	32.000000	n/a	0	0	-2.291667e-01
249.118900	1.484012	dec_nonsocial_reject	1.484012	32.000000	n/a	0	0	-2.976190e-03
249.118900	1.484012	dec_reject	1.484012	32.000000	n/a	0	0	-3.125000e-03
249.118900	1.484012	dec_nonsocial_low	1.484012	32.000000	n/a	0	-2.291667e-01	-2.291667e-01
249.118900	1.484012	dec_nonsocial_reject_low	1.484012	32.000000	n/a	3	-3.125000e-03	-9.687500e-02
255.953200	1.716305	dec_social_choice	1.716305	16.000000	n/a	0	0	-2.291667e-01
255.953200	1.716305	dec_choice	1.716305	16.000000	n/a	0	0	-2.291667e-01
255.953200	1.716305	dec_social_reject	1.716305	16.000000	n/a	0	0	2.827381e-02
255.953200	1.716305	dec_reject	1.716305	16.000000	n/a	0	0	2.840909e-02
255.953200	1.716305	dec_social_low	1.716305	16.000000	n/a	0	-2.291667e-01	-2.291667e-01
255.953200	1.716305	dec_social_reject_low	1.716305	16.000000	n/a	2	-1.041667e-01	-2.291667e-01
268.436600	1.283090	dec_social_choice	1.283090	16.000000	n/a	0	0	-2.291667e-01
268.436600	1.283090	dec_choice	1.283090	16.000000	n/a	0	0	-2.291667e-01
268.436600	1.283090	dec_social_reject	1.283090	16.000000	n/a	0	0	-3.422619e-02
268.436600	1.283090	dec_reject	1.283090	16.000000	n/a	0	0	-3.409091e-02
268.436600	1.283090	dec_social_reject_low	1.283090	16.000000	n/a	1	-1.666667e-01	-2.291667e-01
275.269560	1.216233	dec_social_choice	1.216233	16.000000	n/a	0	0	-2.291667e-01
275.269560	1.216233	dec_choice	1.216233	16.000000	n/a	0	0	-2.291667e-01
275.269560	1.216233	dec_social_reject	1.216233	16.000000	n/a	0	0	-3.422619e-02
275.269560	1.216233	dec_reject	1.216233	16.000000	n/a	0	0	-3.409091e-02
275.269560	1.216233	dec_social_reject_low	1.216233	16.000000	n/a	1	-1.666667e-01	-2.291667e-01
282.101960	2.083787	dec_nonsocial_choice	2.083787	32.000000	n/a	0	0	-2.291667e-01
282.101960	2.083787	dec_choice	2.083787	32.000000	n/a	0	0	-2.291667e-01
282.101960	2.083787	dec_nonsocial_reject	2.083787	32.000000	n/a	0	0	-3.422619e-02
282.101960	2.083787	dec_reject	2.083787	32.000000	n/a	0	0	-3.437500e-02
282.101960	2.083787	dec_nonsocial_reject_low	2.083787	32.000000	n/a	2	-3.409091e-02	-9.659091e-02
288.936860	1.682786	dec_nonsocial_choice	1.682786	16.000000	n/a	4	2.083333e-02	2.083333e-02
288.936860	1.682786	dec_choice	1.682786	16.000000	n/a	4	2.083333e-02	2.083333e-02
288.936860	1.682786	dec_nonsocial_accept	1.682786	16.000000	n/a	4	-8.217593e-02	-8.217593e-02
288.936860	1.682786	dec_accept	1.682786	16.000000	n/a	4	-7.366071e-02	-7.366071e-02
288.936860	1.682786	dec_nonsocial_high	1.682786	16.000000	n/a	4	2.083333e-02	2.083333e-02
288.936860	1.682786	dec_nonsocial_accept_high	1.682786	16.000000	n/a	4	-7.366071e-02	-7.366071e-02
295.769840	1.199825	dec_social_choice	1.199825	32.000000	n/a	16	2.708333e-01	2.708333e-01
295.769840	1.199825	dec_choice	1.199825	32.000000	n/a	16	2.708333e-01	2.708333e-01
295.769840	1.199825	dec_social_accept	1.199825	32.000000	n/a	16	1.678241e-01	1.678241e-01
295.769840	1.199825	dec_accept	1.199825	32.000000	n/a	16	1.586538e-01	1.586538e-01
295.769840	1.199825	dec_social_accept_high	1.199825	32.000000	n/a	16	2.708333e-01	2.708333e-01
303.419000	1.683529	dec_social_choice	1.683529	16.000000	n/a	4	2.083333e-02	2.083333e-02
303.419000	1.683529	dec_choice	1.683529	16.000000	n/a	4	2.083333e-02	2.083333e-02
303.419000	1.683529	dec_social_accept	1.683529	16.000000	n/a	4	-8.217593e-02	-8.217593e-02
303.419000	1.683529	dec_accept	1.683529	16.000000	n/a	4	-9.134615e-02	-9.134615e-02
303.419000	1.683529	dec_social_high	1.683529	16.000000	n/a	4	2.083333e-02	2.083333e-02
303.419000	1.683529	dec_social_accept_high	1.683529	16.000000	n/a	4	2.083333e-02	2.083333e-02
310.252930	1.550017	dec_social_choice	1.550017	16.000000	n/a	0	0	-2.291667e-01
310.252930	1.550017	dec_choice	1.550017	16.000000	n/a	0	0	-2.291667e-01
310.252930	1.550017	dec_social_reject	1.550017	16.000000	n/a	0	0	2.827381e-02
310.252930	1.550017	dec_reject	1.550017	16.000000	n/a	0	0	2.840909e-02
310.252930	1.550017	dec_social_low	1.550017	16.000000	n/a	0	-2.291667e-01	-2.291667e-01
310.252930	1.550017	dec_social_reject_low	1.550017	16.000000	n/a	2	-1.041667e-01	-2.291667e-01
317.886100	1.650250	dec_social_choice	1.650250	16.000000	n/a	4	2.083333e-02	2.083333e-02
317.886100	1.650250	dec_choice	1.650250	16.000000	n/a	4	2.083333e-02	2.083333e-02
317.886100	1.650250	dec_social_accept	1.650250	16.000000	n/a	4	-8.217593e-02	-8.217593e-02
317.886100	1.650250	dec_accept	1.650250	16.000000	n/a	4	-9.134615e-02	-9.134615e-02
317.886100	1.650250	dec_social_accept_high	1.650250	16.000000	n/a	4	2.083333e-02	2.083333e-02
324.719900	1.249953	dec_social_choice	1.249953	32.000000	n/a	0	0	-2.291667e-01
324.719900	1.249953	dec_choice	1.249953	32.000000	n/a	0	0	-2.291667e-01
324.719900	1.249953	dec_social_reject	1.249953	32.000000	n/a	0	0	-3.422619e-02
324.719900	1.249953	dec_reject	1.249953	32.000000	n/a	0	0	-3.409091e-02
324.719900	1.249953	dec_social_reject_low	1.249953	32.000000	n/a	2	-1.666667e-01	-2.291667e-01
331.552340	1.083656	dec_nonsocial_choice	1.083656	32.000000	n/a	0	0	-2.291667e-01
331.552340	1.083656	dec_choice	1.083656	32.000000	n/a	0	0	-2.291667e-01
331.552340	1.083656	dec_nonsocial_reject	1.083656	32.000000	n/a	0	0	-2.976190e-03
331.552340	1.083656	dec_reject	1.083656	32.000000	n/a	0	0	-3.125000e-03
331.552340	1.083656	dec_nonsocial_reject_low	1.083656	32.000000	n/a	3	-2.840909e-03	-9.659091e-02
340.804050	1.482019	dec_nonsocial_choice	1.482019	16.000000	n/a	4	2.083333e-02	2.083333e-02
340.804050	1.482019	dec_choice	1.482019	16.000000	n/a	4	2.083333e-02	2.083333e-02
340.804050	1.482019	dec_nonsocial_accept	1.482019	16.000000	n/a	4	-8.217593e-02	-8.217593e-02
340.804050	1.482019	dec_accept	1.482019	16.000000	n/a	4	-7.366071e-02	-7.366071e-02
340.804050	1.482019	dec_nonsocial_high	1.482019	16.000000	n/a	4	2.083333e-02	2.083333e-02
340.804050	1.482019	dec_nonsocial_accept_high	1.482019	16.000000	n/a	4	-7.366071e-02	-7.366071e-02
350.052980	1.133341	dec_social_choice	1.133341	32.000000	n/a	16	2.708333e-01	2.708333e-01
350.052980	1.133341	dec_choice	1.133341	32.000000	n/a	16	2.708333e-01	2.708333e-01
350.052980	1.133341	dec_social_accept	1.133341	32.000000	n/a	16	1.678241e-01	1.678241e-01
350.052980	1.133341	dec_accept	1.133341	32.000000	n/a	16	1.586538e-01	1.586538e-01
350.052980	1.133341	dec_social_high	1.133341	32.000000	n/a	16	2.708333e-01	2.708333e-01
350.052980	1.133341	dec_social_accept_high	1.133341	32.000000	n/a	16	2.708333e-01	2.708333e-01
357.702730	1.816078	dec_nonsocial_choice	1.816078	16.000000	n/a	4	2.083333e-02	2.083333e-02
357.702730	1.816078	dec_choice	1.816078	16.000000	n/a	4	2.083333e-02	2.083333e-02
357.702730	1.816078	dec_nonsocial_accept	1.816078	16.000000	n/a	4	-8.217593e-02	-8.217593e-02
357.702730	1.816078	dec_accept	1.816078	16.000000	n/a	4	-7.366071e-02	-7.366071e-02
357.702730	1.816078	dec_nonsocial_high	1.816078	16.000000	n/a	4	2.083333e-02	2.083333e-02
357.702730	1.816078	dec_nonsocial_accept_high	1.816078	16.000000	n/a	4	-7.366071e-02	-7.366071e-02
365.352940	1.183112	dec_social_choice	1.183112	16.000000	n/a	0	0	-2.291667e-01
365.352940	1.183112	dec_choice	1.183112	16.000000	n/a	0	0	-2.291667e-01
365.352940	1.183112	dec_social_reject	1.183112	16.000000	n/a	0	0	-3.422619e-02
365.352940	1.183112	dec_reject	1.183112	16.000000	n/a	0	0	-3.409091e-02
365.352940	1.183112	dec_social_reject_low	1.183112	16.000000	n/a	1	-1.666667e-01	-2.291667e-01
372.187000	1.599212	dec_nonsocial_choice	1.599212	16.000000	n/a	8	2.708333e-01	2.708333e-01
372.187000	1.599212	dec_choice	1.599212	16.000000	n/a	8	2.708333e-01	2.708333e-01
372.187000	1.599212	dec_nonsocial_accept	1.599212	16.000000	n/a	8	1.678241e-01	1.678241e-01
372.187000	1.599212	dec_accept	1.599212	16.000000	n/a	8	1.763393e-01	1.763393e-01
372.187000	1.599212	dec_nonsocial_high	1.599212	16.000000	n/a	8	2.708333e-01	2.708333e-01
372.187000	1.599212	dec_nonsocial_accept_high	1.599212	16.000000	n/a	8	1.763393e-01	1.763393e-01
