onset	duration	trial_type	response_time	Endowment	Endowment_pmod	Decision	Decision_pmod	Offer_pmod
4.515713	2	cue_nonsocial	n/a	32	5	n/a	n/a	n/a
4.515713	2	cue_nonsocial_high	n/a	32	6	n/a	n/a	n/a
12.160131	2	cue_social	n/a	32	6	n/a	n/a	n/a
12.160131	2	cue_social_high	n/a	32	5	n/a	n/a	n/a
19.829618	2	cue_social	n/a	32	6	n/a	n/a	n/a
19.829618	2	cue_social_high	n/a	32	5	n/a	n/a	n/a
27.473272	2	cue_social	n/a	16	-10	n/a	n/a	n/a
27.473272	2	cue_social_low	n/a	16	-11	n/a	n/a	n/a
35.116140	2	cue_nonsocial	n/a	32	5	n/a	n/a	n/a
35.116140	2	cue_nonsocial_high	n/a	32	6	n/a	n/a	n/a
42.072346	2	cue_social	n/a	32	6	n/a	n/a	n/a
42.072346	2	cue_social_high	n/a	32	5	n/a	n/a	n/a
49.615906	2	cue_nonsocial	n/a	16	-11	n/a	n/a	n/a
49.615906	2	cue_nonsocial_low	n/a	16	-10	n/a	n/a	n/a
56.553910	2	cue_social	n/a	32	6	n/a	n/a	n/a
56.553910	2	cue_social_high	n/a	32	5	n/a	n/a	n/a
65.699220	2	cue_nonsocial	n/a	16	-11	n/a	n/a	n/a
65.699220	2	cue_nonsocial_low	n/a	16	-10	n/a	n/a	n/a
75.065020	2	cue_social	n/a	16	-10	n/a	n/a	n/a
75.065020	2	cue_social_low	n/a	16	-11	n/a	n/a	n/a
81.904590	2	cue_social	n/a	16	-10	n/a	n/a	n/a
81.904590	2	cue_social_low	n/a	16	-11	n/a	n/a	n/a
88.744680	2	cue_social	n/a	32	6	n/a	n/a	n/a
88.744680	2	cue_social_high	n/a	32	5	n/a	n/a	n/a
97.973140	2	cue_social	n/a	32	6	n/a	n/a	n/a
97.973140	2	cue_social_high	n/a	32	5	n/a	n/a	n/a
104.818730	2	cue_social	n/a	16	-10	n/a	n/a	n/a
104.818730	2	cue_social_low	n/a	16	-11	n/a	n/a	n/a
115.580560	2	cue_social	n/a	32	6	n/a	n/a	n/a
115.580560	2	cue_social_high	n/a	32	5	n/a	n/a	n/a
122.412490	2	cue_social	n/a	32	6	n/a	n/a	n/a
122.412490	2	cue_social_high	n/a	32	5	n/a	n/a	n/a
130.048500	2	cue_nonsocial	n/a	16	-11	n/a	n/a	n/a
130.048500	2	cue_nonsocial_low	n/a	16	-10	n/a	n/a	n/a
136.881770	2	cue_nonsocial	n/a	32	5	n/a	n/a	n/a
136.881770	2	cue_nonsocial_high	n/a	32	6	n/a	n/a	n/a
143.714940	2	cue_nonsocial	n/a	32	5	n/a	n/a	n/a
143.714940	2	cue_nonsocial_high	n/a	32	6	n/a	n/a	n/a
150.548300	2	cue_nonsocial	n/a	32	5	n/a	n/a	n/a
150.548300	2	cue_nonsocial_high	n/a	32	6	n/a	n/a	n/a
157.477520	2	cue_social	n/a	16	-10	n/a	n/a	n/a
157.477520	2	cue_social_low	n/a	16	-11	n/a	n/a	n/a
166.631560	2	cue_nonsocial	n/a	32	5	n/a	n/a	n/a
166.631560	2	cue_nonsocial_high	n/a	32	6	n/a	n/a	n/a
173.551740	2	cue_social	n/a	16	-10	n/a	n/a	n/a
173.551740	2	cue_social_low	n/a	16	-11	n/a	n/a	n/a
180.298740	2	cue_nonsocial	n/a	32	5	n/a	n/a	n/a
180.298740	2	cue_nonsocial_high	n/a	32	6	n/a	n/a	n/a
187.131580	2	cue_nonsocial	n/a	16	-11	n/a	n/a	n/a
187.131580	2	cue_nonsocial_low	n/a	16	-10	n/a	n/a	n/a
193.964890	2	cue_nonsocial	n/a	32	5	n/a	n/a	n/a
193.964890	2	cue_nonsocial_high	n/a	32	6	n/a	n/a	n/a
200.798360	2	cue_nonsocial	n/a	32	5	n/a	n/a	n/a
200.798360	2	cue_nonsocial_high	n/a	32	6	n/a	n/a	n/a
211.759540	2	cue_social	n/a	32	6	n/a	n/a	n/a
211.759540	2	cue_social_high	n/a	32	5	n/a	n/a	n/a
218.566620	2	cue_social	n/a	16	-10	n/a	n/a	n/a
218.566620	2	cue_social_low	n/a	16	-11	n/a	n/a	n/a
225.453350	2	cue_social	n/a	32	6	n/a	n/a	n/a
225.453350	2	cue_social_high	n/a	32	5	n/a	n/a	n/a
232.165620	2	cue_nonsocial	n/a	32	5	n/a	n/a	n/a
232.165620	2	cue_nonsocial_high	n/a	32	6	n/a	n/a	n/a
241.495320	2	cue_social	n/a	32	6	n/a	n/a	n/a
241.495320	2	cue_social_high	n/a	32	5	n/a	n/a	n/a
249.064940	2	cue_nonsocial	n/a	32	5	n/a	n/a	n/a
249.064940	2	cue_nonsocial_high	n/a	32	6	n/a	n/a	n/a
256.714700	2	cue_nonsocial	n/a	16	-11	n/a	n/a	n/a
256.714700	2	cue_nonsocial_low	n/a	16	-10	n/a	n/a	n/a
264.434420	2	cue_social	n/a	32	6	n/a	n/a	n/a
264.434420	2	cue_social_high	n/a	32	5	n/a	n/a	n/a
272.014470	2	cue_nonsocial	n/a	32	5	n/a	n/a	n/a
272.014470	2	cue_nonsocial_high	n/a	32	6	n/a	n/a	n/a
278.847870	2	cue_nonsocial	n/a	16	-11	n/a	n/a	n/a
278.847870	2	cue_nonsocial_low	n/a	16	-10	n/a	n/a	n/a
285.681240	2	cue_nonsocial	n/a	16	-11	n/a	n/a	n/a
285.681240	2	cue_nonsocial_low	n/a	16	-10	n/a	n/a	n/a
292.601800	2	cue_social	n/a	16	-10	n/a	n/a	n/a
292.601800	2	cue_social_low	n/a	16	-11	n/a	n/a	n/a
299.347800	2	cue_nonsocial	n/a	32	5	n/a	n/a	n/a
299.347800	2	cue_nonsocial_high	n/a	32	6	n/a	n/a	n/a
307.057600	2	cue_social	n/a	16	-10	n/a	n/a	n/a
307.057600	2	cue_social_low	n/a	16	-11	n/a	n/a	n/a
313.830900	2	cue_nonsocial	n/a	32	5	n/a	n/a	n/a
313.830900	2	cue_nonsocial_high	n/a	32	6	n/a	n/a	n/a
326.314180	2	cue_nonsocial	n/a	32	5	n/a	n/a	n/a
326.314180	2	cue_nonsocial_high	n/a	32	6	n/a	n/a	n/a
333.965270	2	cue_nonsocial	n/a	32	5	n/a	n/a	n/a
333.965270	2	cue_nonsocial_high	n/a	32	6	n/a	n/a	n/a
343.291560	2	cue_social	n/a	32	6	n/a	n/a	n/a
343.291560	2	cue_social_high	n/a	32	5	n/a	n/a	n/a
354.125100	2	cue_social	n/a	32	6	n/a	n/a	n/a
354.125100	2	cue_social_high	n/a	32	5	n/a	n/a	n/a
361.800780	2	cue_social	n/a	32	6	n/a	n/a	n/a
361.800780	2	cue_social_high	n/a	32	5	n/a	n/a	n/a
370.981020	2	cue_nonsocial	n/a	32	5	n/a	n/a	n/a
370.981020	2	cue_nonsocial_high	n/a	32	6	n/a	n/a	n/a
6.522105	1.299178	dec_nonsocial_choice	1.299178	32.000000	n/a	16	2.679521e-01	2.679521e-01
6.522105	1.299178	dec_choice	1.299178	32.000000	n/a	16	2.649457e-01	2.649457e-01
6.522105	1.299178	dec_nonsocial_accept	1.299178	32.000000	n/a	16	2.052083e-01	2.052083e-01
6.522105	1.299178	dec_accept	1.299178	32.000000	n/a	16	2.205882e-01	2.205882e-01
6.522105	1.299178	dec_nonsocial_high	1.299178	32.000000	n/a	16	2.649457e-01	2.649457e-01
6.522105	1.299178	dec_nonsocial_accept_high	1.299178	32.000000	n/a	16	2.205882e-01	2.205882e-01
14.172073	2.766427	dec_social_choice	2.766427	32.000000	n/a	0	0	-2.320479e-01
14.172073	2.766427	dec_choice	2.766427	32.000000	n/a	0	0	-2.291667e-01
14.172073	2.766427	dec_social_reject	2.766427	32.000000	n/a	0	0	1.286765e-01
14.172073	2.766427	dec_reject	2.766427	32.000000	n/a	0	0	1.221591e-01
14.172073	2.766427	dec_social_low	2.766427	32.000000	n/a	0	-2.291667e-01	-2.291667e-01
14.172073	2.766427	dec_social_reject_low	2.766427	32.000000	n/a	8	2.083333e-02	-2.291667e-01
21.821142	2.233532	dec_social_choice	2.233532	32.000000	n/a	0	0	-2.320479e-01
21.821142	2.233532	dec_choice	2.233532	32.000000	n/a	0	0	-2.291667e-01
21.821142	2.233532	dec_social_reject	2.233532	32.000000	n/a	0	0	-5.882353e-02
21.821142	2.233532	dec_reject	2.233532	32.000000	n/a	0	0	-6.534091e-02
21.821142	2.233532	dec_social_reject_low	2.233532	32.000000	n/a	2	-1.666667e-01	-2.291667e-01
29.471470	1.833411	dec_social_choice	1.833411	16.000000	n/a	0	0	-2.320479e-01
29.471470	1.833411	dec_choice	1.833411	16.000000	n/a	0	0	-2.291667e-01
29.471470	1.833411	dec_social_reject	1.833411	16.000000	n/a	0	0	-5.882353e-02
29.471470	1.833411	dec_reject	1.833411	16.000000	n/a	0	0	-6.534091e-02
29.471470	1.833411	dec_social_reject_low	1.833411	16.000000	n/a	1	-1.666667e-01	-2.291667e-01
37.121130	3.766946	missed_trial	3.766946	32.000000	n/a	n/a	n/a	n/a
43.972020	1.865816	dec_social_choice	1.865816	32.000000	n/a	3	-1.382979e-01	-1.382979e-01
43.972020	1.865816	dec_choice	1.865816	32.000000	n/a	3	-1.354167e-01	-1.354167e-01
43.972020	1.865816	dec_social_accept	1.865816	32.000000	n/a	3	-2.010417e-01	-2.010417e-01
43.972020	1.865816	dec_accept	1.865816	32.000000	n/a	3	-2.211538e-01	-2.211538e-01
43.972020	1.865816	dec_social_low	1.865816	32.000000	n/a	3	-1.354167e-01	-1.354167e-01
43.972020	1.865816	dec_social_accept_low	1.865816	32.000000	n/a	3	-1.354167e-01	-1.354167e-01
51.621544	2.882932	dec_nonsocial_choice	2.882932	16.000000	n/a	8	2.679521e-01	2.679521e-01
51.621544	2.882932	dec_choice	2.882932	16.000000	n/a	8	2.649457e-01	2.649457e-01
51.621544	2.882932	dec_nonsocial_accept	2.882932	16.000000	n/a	8	2.052083e-01	2.052083e-01
51.621544	2.882932	dec_accept	2.882932	16.000000	n/a	8	2.205882e-01	2.205882e-01
51.621544	2.882932	dec_nonsocial_high	2.882932	16.000000	n/a	8	2.649457e-01	2.649457e-01
51.621544	2.882932	dec_nonsocial_accept_high	2.882932	16.000000	n/a	8	2.205882e-01	2.205882e-01
58.455273	1.999568	dec_social_choice	1.999568	32.000000	n/a	16	2.679521e-01	2.679521e-01
58.455273	1.999568	dec_choice	1.999568	32.000000	n/a	16	2.708333e-01	2.708333e-01
58.455273	1.999568	dec_social_accept	1.999568	32.000000	n/a	16	2.052083e-01	2.052083e-01
58.455273	1.999568	dec_accept	1.999568	32.000000	n/a	16	1.850962e-01	1.850962e-01
58.455273	1.999568	dec_social_high	1.999568	32.000000	n/a	16	2.708333e-01	2.708333e-01
58.455273	1.999568	dec_social_accept_high	1.999568	32.000000	n/a	16	2.708333e-01	2.708333e-01
67.704050	2.283397	dec_nonsocial_choice	2.283397	16.000000	n/a	0	0	-2.320479e-01
67.704050	2.283397	dec_choice	2.283397	16.000000	n/a	0	0	-2.350543e-01
67.704050	2.283397	dec_nonsocial_reject	2.283397	16.000000	n/a	0	0	3.676471e-03
67.704050	2.283397	dec_reject	2.283397	16.000000	n/a	0	0	1.562500e-02
67.704050	2.283397	dec_nonsocial_low	2.283397	16.000000	n/a	0	-2.350543e-01	-2.350543e-01
67.704050	2.283397	dec_nonsocial_reject_low	2.283397	16.000000	n/a	2	1.562500e-02	-1.093750e-01
76.954790	2.600015	dec_social_choice	2.600015	16.000000	n/a	0	0	-2.320479e-01
76.954790	2.600015	dec_choice	2.600015	16.000000	n/a	0	0	-2.291667e-01
76.954790	2.600015	dec_social_reject	2.600015	16.000000	n/a	0	0	-5.882353e-02
76.954790	2.600015	dec_reject	2.600015	16.000000	n/a	0	0	-6.534091e-02
76.954790	2.600015	dec_social_reject_low	2.600015	16.000000	n/a	1	-1.666667e-01	-2.291667e-01
83.787950	1.716759	dec_social_choice	1.716759	16.000000	n/a	0	0	-2.320479e-01
83.787950	1.716759	dec_choice	1.716759	16.000000	n/a	0	0	-2.291667e-01
83.787950	1.716759	dec_social_reject	1.716759	16.000000	n/a	0	0	-5.882353e-02
83.787950	1.716759	dec_reject	1.716759	16.000000	n/a	0	0	-6.534091e-02
83.787950	1.716759	dec_social_low	1.716759	16.000000	n/a	0	-2.291667e-01	-2.291667e-01
83.787950	1.716759	dec_social_reject_low	1.716759	16.000000	n/a	1	-1.666667e-01	-2.291667e-01
90.619970	1.667605	dec_social_choice	1.667605	32.000000	n/a	3	-1.382979e-01	-1.382979e-01
90.619970	1.667605	dec_choice	1.667605	32.000000	n/a	3	-1.354167e-01	-1.354167e-01
90.619970	1.667605	dec_social_accept	1.667605	32.000000	n/a	3	-2.010417e-01	-2.010417e-01
90.619970	1.667605	dec_accept	1.667605	32.000000	n/a	3	-2.211538e-01	-2.211538e-01
90.619970	1.667605	dec_social_accept_low	1.667605	32.000000	n/a	3	-1.354167e-01	-1.354167e-01
99.871080	1.833590	dec_social_choice	1.833590	32.000000	n/a	2	-1.695479e-01	-1.695479e-01
99.871080	1.833590	dec_choice	1.833590	32.000000	n/a	2	-1.666667e-01	-1.666667e-01
99.871080	1.833590	dec_social_accept	1.833590	32.000000	n/a	2	-2.322917e-01	-2.322917e-01
99.871080	1.833590	dec_accept	1.833590	32.000000	n/a	2	-2.524038e-01	-2.524038e-01
99.871080	1.833590	dec_social_accept_low	1.833590	32.000000	n/a	2	-1.666667e-01	-1.666667e-01
106.704800	2.282915	dec_social_choice	2.282915	16.000000	n/a	0	0	-2.320479e-01
106.704800	2.282915	dec_choice	2.282915	16.000000	n/a	0	0	-2.291667e-01
106.704800	2.282915	dec_social_reject	2.282915	16.000000	n/a	0	0	1.286765e-01
106.704800	2.282915	dec_reject	2.282915	16.000000	n/a	0	0	1.221591e-01
106.704800	2.282915	dec_social_reject_low	2.282915	16.000000	n/a	4	2.083333e-02	-2.291667e-01
117.571070	1.799818	dec_social_choice	1.799818	32.000000	n/a	8	1.795213e-02	1.795213e-02
117.571070	1.799818	dec_choice	1.799818	32.000000	n/a	8	2.083333e-02	2.083333e-02
117.571070	1.799818	dec_social_accept	1.799818	32.000000	n/a	8	-4.479167e-02	-4.479167e-02
117.571070	1.799818	dec_accept	1.799818	32.000000	n/a	8	-6.490385e-02	-6.490385e-02
117.571070	1.799818	dec_social_high	1.799818	32.000000	n/a	8	2.083333e-02	2.083333e-02
117.571070	1.799818	dec_social_accept_high	1.799818	32.000000	n/a	8	2.083333e-02	2.083333e-02
124.404650	1.483238	dec_social_choice	1.483238	32.000000	n/a	16	2.679521e-01	2.679521e-01
124.404650	1.483238	dec_choice	1.483238	32.000000	n/a	16	2.708333e-01	2.708333e-01
124.404650	1.483238	dec_social_accept	1.483238	32.000000	n/a	16	2.052083e-01	2.052083e-01
124.404650	1.483238	dec_accept	1.483238	32.000000	n/a	16	1.850962e-01	1.850962e-01
124.404650	1.483238	dec_social_accept_high	1.483238	32.000000	n/a	16	2.708333e-01	2.708333e-01
132.053940	1.333835	dec_nonsocial_choice	1.333835	16.000000	n/a	0	0	-2.320479e-01
132.053940	1.333835	dec_choice	1.333835	16.000000	n/a	0	0	-2.350543e-01
132.053940	1.333835	dec_nonsocial_reject	1.333835	16.000000	n/a	0	0	1.286765e-01
132.053940	1.333835	dec_reject	1.333835	16.000000	n/a	0	0	1.406250e-01
132.053940	1.333835	dec_nonsocial_reject_low	1.333835	16.000000	n/a	4	1.221591e-01	-1.278409e-01
138.887850	1.249828	dec_nonsocial_choice	1.249828	32.000000	n/a	16	2.679521e-01	2.679521e-01
138.887850	1.249828	dec_choice	1.249828	32.000000	n/a	16	2.649457e-01	2.649457e-01
138.887850	1.249828	dec_nonsocial_accept	1.249828	32.000000	n/a	16	2.052083e-01	2.052083e-01
138.887850	1.249828	dec_accept	1.249828	32.000000	n/a	16	2.205882e-01	2.205882e-01
138.887850	1.249828	dec_nonsocial_accept_high	1.249828	32.000000	n/a	16	1.850962e-01	1.850962e-01
145.720870	1.766499	dec_nonsocial_choice	1.766499	32.000000	n/a	3	-1.382979e-01	-1.382979e-01
145.720870	1.766499	dec_choice	1.766499	32.000000	n/a	3	-1.413043e-01	-1.413043e-01
145.720870	1.766499	dec_nonsocial_accept	1.766499	32.000000	n/a	3	-2.010417e-01	-2.010417e-01
145.720870	1.766499	dec_accept	1.766499	32.000000	n/a	3	-1.856618e-01	-1.856618e-01
145.720870	1.766499	dec_nonsocial_accept_low	1.766499	32.000000	n/a	3	-2.211538e-01	-2.211538e-01
152.554800	1.915459	dec_nonsocial_choice	1.915459	32.000000	n/a	2	-1.695479e-01	-1.695479e-01
152.554800	1.915459	dec_choice	1.915459	32.000000	n/a	2	-1.725543e-01	-1.725543e-01
152.554800	1.915459	dec_nonsocial_accept	1.915459	32.000000	n/a	2	-2.322917e-01	-2.322917e-01
152.554800	1.915459	dec_accept	1.915459	32.000000	n/a	2	-2.169118e-01	-2.169118e-01
152.554800	1.915459	dec_nonsocial_accept_low	1.915459	32.000000	n/a	2	-2.524038e-01	-2.524038e-01
159.387680	1.283146	dec_social_choice	1.283146	16.000000	n/a	8	2.679521e-01	2.679521e-01
159.387680	1.283146	dec_choice	1.283146	16.000000	n/a	8	2.708333e-01	2.708333e-01
159.387680	1.283146	dec_social_accept	1.283146	16.000000	n/a	8	2.052083e-01	2.052083e-01
159.387680	1.283146	dec_accept	1.283146	16.000000	n/a	8	1.850962e-01	1.850962e-01
159.387680	1.283146	dec_social_accept_high	1.283146	16.000000	n/a	8	2.708333e-01	2.708333e-01
168.638380	1.499431	dec_nonsocial_choice	1.499431	32.000000	n/a	0	0	-2.320479e-01
168.638380	1.499431	dec_choice	1.499431	32.000000	n/a	0	0	-2.350543e-01
168.638380	1.499431	dec_nonsocial_reject	1.499431	32.000000	n/a	0	0	-2.757353e-02
168.638380	1.499431	dec_reject	1.499431	32.000000	n/a	0	0	-1.562500e-02
168.638380	1.499431	dec_nonsocial_low	1.499431	32.000000	n/a	0	-2.350543e-01	-2.350543e-01
168.638380	1.499431	dec_nonsocial_reject_low	1.499431	32.000000	n/a	3	-1.562500e-02	-1.093750e-01
175.470660	2.099887	dec_social_choice	2.099887	16.000000	n/a	0	0	-2.320479e-01
175.470660	2.099887	dec_choice	2.099887	16.000000	n/a	0	0	-2.291667e-01
175.470660	2.099887	dec_social_reject	2.099887	16.000000	n/a	0	0	1.286765e-01
175.470660	2.099887	dec_reject	2.099887	16.000000	n/a	0	0	1.221591e-01
175.470660	2.099887	dec_social_low	2.099887	16.000000	n/a	0	-2.291667e-01	-2.291667e-01
175.470660	2.099887	dec_social_reject_low	2.099887	16.000000	n/a	4	2.083333e-02	-2.291667e-01
182.304660	2.216295	dec_nonsocial_choice	2.216295	32.000000	n/a	8	1.795213e-02	1.795213e-02
182.304660	2.216295	dec_choice	2.216295	32.000000	n/a	8	1.494565e-02	1.494565e-02
182.304660	2.216295	dec_nonsocial_accept	2.216295	32.000000	n/a	8	-4.479167e-02	-4.479167e-02
182.304660	2.216295	dec_accept	2.216295	32.000000	n/a	8	-2.941176e-02	-2.941176e-02
182.304660	2.216295	dec_nonsocial_high	2.216295	32.000000	n/a	8	1.494565e-02	1.494565e-02
182.304660	2.216295	dec_nonsocial_accept_high	2.216295	32.000000	n/a	8	-2.941176e-02	-2.941176e-02
189.137100	2.150204	dec_nonsocial_choice	2.150204	16.000000	n/a	4	1.795213e-02	1.795213e-02
189.137100	2.150204	dec_choice	2.150204	16.000000	n/a	4	1.494565e-02	1.494565e-02
189.137100	2.150204	dec_nonsocial_accept	2.150204	16.000000	n/a	4	-4.479167e-02	-4.479167e-02
189.137100	2.150204	dec_accept	2.150204	16.000000	n/a	4	-2.941176e-02	-2.941176e-02
189.137100	2.150204	dec_nonsocial_accept_high	2.150204	16.000000	n/a	4	-6.490385e-02	-6.490385e-02
195.970800	1.399952	dec_nonsocial_choice	1.399952	32.000000	n/a	16	2.679521e-01	2.679521e-01
195.970800	1.399952	dec_choice	1.399952	32.000000	n/a	16	2.649457e-01	2.649457e-01
195.970800	1.399952	dec_nonsocial_accept	1.399952	32.000000	n/a	16	2.052083e-01	2.052083e-01
195.970800	1.399952	dec_accept	1.399952	32.000000	n/a	16	2.205882e-01	2.205882e-01
195.970800	1.399952	dec_nonsocial_high	1.399952	32.000000	n/a	16	2.649457e-01	2.649457e-01
195.970800	1.399952	dec_nonsocial_accept_high	1.399952	32.000000	n/a	16	2.205882e-01	2.205882e-01
202.804340	2.182856	dec_nonsocial_choice	2.182856	32.000000	n/a	8	1.795213e-02	1.795213e-02
202.804340	2.182856	dec_choice	2.182856	32.000000	n/a	8	1.494565e-02	1.494565e-02
202.804340	2.182856	dec_nonsocial_accept	2.182856	32.000000	n/a	8	-4.479167e-02	-4.479167e-02
202.804340	2.182856	dec_accept	2.182856	32.000000	n/a	8	-2.941176e-02	-2.941176e-02
202.804340	2.182856	dec_nonsocial_high	2.182856	32.000000	n/a	8	1.494565e-02	1.494565e-02
202.804340	2.182856	dec_nonsocial_accept_high	2.182856	32.000000	n/a	8	-2.941176e-02	-2.941176e-02
213.670850	2.299959	dec_social_choice	2.299959	32.000000	n/a	0	0	-2.320479e-01
213.670850	2.299959	dec_choice	2.299959	32.000000	n/a	0	0	-2.291667e-01
213.670850	2.299959	dec_social_reject	2.299959	32.000000	n/a	0	0	-5.882353e-02
213.670850	2.299959	dec_reject	2.299959	32.000000	n/a	0	0	-6.534091e-02
213.670850	2.299959	dec_social_low	2.299959	32.000000	n/a	0	-2.291667e-01	-2.291667e-01
213.670850	2.299959	dec_social_reject_low	2.299959	32.000000	n/a	2	-1.666667e-01	-2.291667e-01
220.504800	1.515359	dec_social_choice	1.515359	16.000000	n/a	8	2.679521e-01	2.679521e-01
220.504800	1.515359	dec_choice	1.515359	16.000000	n/a	8	2.708333e-01	2.708333e-01
220.504800	1.515359	dec_social_accept	1.515359	16.000000	n/a	8	2.052083e-01	2.052083e-01
220.504800	1.515359	dec_accept	1.515359	16.000000	n/a	8	1.850962e-01	1.850962e-01
220.504800	1.515359	dec_social_accept_high	1.515359	16.000000	n/a	8	2.708333e-01	2.708333e-01
227.337020	1.033370	dec_social_choice	1.033370	32.000000	n/a	16	2.679521e-01	2.679521e-01
227.337020	1.033370	dec_choice	1.033370	32.000000	n/a	16	2.708333e-01	2.708333e-01
227.337020	1.033370	dec_social_accept	1.033370	32.000000	n/a	16	2.052083e-01	2.052083e-01
227.337020	1.033370	dec_accept	1.033370	32.000000	n/a	16	1.850962e-01	1.850962e-01
227.337020	1.033370	dec_social_accept_high	1.033370	32.000000	n/a	16	2.708333e-01	2.708333e-01
234.171570	1.633020	dec_nonsocial_choice	1.633020	32.000000	n/a	2	-1.695479e-01	-1.695479e-01
234.171570	1.633020	dec_choice	1.633020	32.000000	n/a	2	-1.725543e-01	-1.725543e-01
234.171570	1.633020	dec_nonsocial_accept	1.633020	32.000000	n/a	2	-2.322917e-01	-2.322917e-01
234.171570	1.633020	dec_accept	1.633020	32.000000	n/a	2	-2.169118e-01	-2.169118e-01
234.171570	1.633020	dec_nonsocial_low	1.633020	32.000000	n/a	2	-1.725543e-01	-1.725543e-01
234.171570	1.633020	dec_nonsocial_accept_low	1.633020	32.000000	n/a	2	-2.169118e-01	-2.169118e-01
243.436900	1.100251	dec_social_choice	1.100251	32.000000	n/a	16	2.679521e-01	2.679521e-01
243.436900	1.100251	dec_choice	1.100251	32.000000	n/a	16	2.708333e-01	2.708333e-01
243.436900	1.100251	dec_social_accept	1.100251	32.000000	n/a	16	2.052083e-01	2.052083e-01
243.436900	1.100251	dec_accept	1.100251	32.000000	n/a	16	1.850962e-01	1.850962e-01
243.436900	1.100251	dec_social_accept_high	1.100251	32.000000	n/a	16	2.708333e-01	2.708333e-01
251.071370	1.382549	dec_nonsocial_choice	1.382549	32.000000	n/a	8	1.795213e-02	1.795213e-02
251.071370	1.382549	dec_choice	1.382549	32.000000	n/a	8	1.494565e-02	1.494565e-02
251.071370	1.382549	dec_nonsocial_accept	1.382549	32.000000	n/a	8	-4.479167e-02	-4.479167e-02
251.071370	1.382549	dec_accept	1.382549	32.000000	n/a	8	-2.941176e-02	-2.941176e-02
251.071370	1.382549	dec_nonsocial_accept_high	1.382549	32.000000	n/a	8	-6.490385e-02	-6.490385e-02
258.720600	1.550134	dec_nonsocial_choice	1.550134	16.000000	n/a	0	0	-2.320479e-01
258.720600	1.550134	dec_choice	1.550134	16.000000	n/a	0	0	-2.350543e-01
258.720600	1.550134	dec_nonsocial_reject	1.550134	16.000000	n/a	0	0	-5.882353e-02
258.720600	1.550134	dec_reject	1.550134	16.000000	n/a	0	0	-4.687500e-02
258.720600	1.550134	dec_nonsocial_reject_low	1.550134	16.000000	n/a	1	-6.534091e-02	-1.278409e-01
266.371500	2.281626	dec_social_choice	2.281626	32.000000	n/a	3	-1.382979e-01	-1.382979e-01
266.371500	2.281626	dec_choice	2.281626	32.000000	n/a	3	-1.354167e-01	-1.354167e-01
266.371500	2.281626	dec_social_accept	2.281626	32.000000	n/a	3	-2.010417e-01	-2.010417e-01
266.371500	2.281626	dec_accept	2.281626	32.000000	n/a	3	-2.211538e-01	-2.211538e-01
266.371500	2.281626	dec_social_accept_low	2.281626	32.000000	n/a	3	-1.354167e-01	-1.354167e-01
274.020630	1.416231	dec_nonsocial_choice	1.416231	32.000000	n/a	16	2.679521e-01	2.679521e-01
274.020630	1.416231	dec_choice	1.416231	32.000000	n/a	16	2.649457e-01	2.649457e-01
274.020630	1.416231	dec_nonsocial_accept	1.416231	32.000000	n/a	16	2.052083e-01	2.052083e-01
274.020630	1.416231	dec_accept	1.416231	32.000000	n/a	16	2.205882e-01	2.205882e-01
274.020630	1.416231	dec_nonsocial_high	1.416231	32.000000	n/a	16	2.649457e-01	2.649457e-01
274.020630	1.416231	dec_nonsocial_accept_high	1.416231	32.000000	n/a	16	2.205882e-01	2.205882e-01
280.853800	1.933361	dec_nonsocial_choice	1.933361	16.000000	n/a	0	0	-2.320479e-01
280.853800	1.933361	dec_choice	1.933361	16.000000	n/a	0	0	-2.350543e-01
280.853800	1.933361	dec_nonsocial_reject	1.933361	16.000000	n/a	0	0	-5.882353e-02
280.853800	1.933361	dec_reject	1.933361	16.000000	n/a	0	0	-4.687500e-02
280.853800	1.933361	dec_nonsocial_reject_low	1.933361	16.000000	n/a	1	-6.534091e-02	-1.278409e-01
287.687300	1.515974	dec_nonsocial_choice	1.515974	16.000000	n/a	4	1.795213e-02	1.795213e-02
287.687300	1.515974	dec_choice	1.515974	16.000000	n/a	4	1.494565e-02	1.494565e-02
287.687300	1.515974	dec_nonsocial_accept	1.515974	16.000000	n/a	4	-4.479167e-02	-4.479167e-02
287.687300	1.515974	dec_accept	1.515974	16.000000	n/a	4	-2.941176e-02	-2.941176e-02
287.687300	1.515974	dec_nonsocial_high	1.515974	16.000000	n/a	4	1.494565e-02	1.494565e-02
287.687300	1.515974	dec_nonsocial_accept_high	1.515974	16.000000	n/a	4	-2.941176e-02	-2.941176e-02
294.520420	1.966422	dec_social_choice	1.966422	16.000000	n/a	0	0	-2.320479e-01
294.520420	1.966422	dec_choice	1.966422	16.000000	n/a	0	0	-2.291667e-01
294.520420	1.966422	dec_social_reject	1.966422	16.000000	n/a	0	0	3.676471e-03
294.520420	1.966422	dec_reject	1.966422	16.000000	n/a	0	0	-2.840909e-03
294.520420	1.966422	dec_social_reject_low	1.966422	16.000000	n/a	2	-1.041667e-01	-2.291667e-01
301.353640	2.933595	dec_nonsocial_choice	2.933595	32.000000	n/a	3	-1.382979e-01	-1.382979e-01
301.353640	2.933595	dec_choice	2.933595	32.000000	n/a	3	-1.413043e-01	-1.413043e-01
301.353640	2.933595	dec_nonsocial_accept	2.933595	32.000000	n/a	3	-2.010417e-01	-2.010417e-01
301.353640	2.933595	dec_accept	2.933595	32.000000	n/a	3	-1.856618e-01	-1.856618e-01
301.353640	2.933595	dec_nonsocial_accept_low	2.933595	32.000000	n/a	3	-2.211538e-01	-2.211538e-01
309.004460	1.349288	dec_social_choice	1.349288	16.000000	n/a	0	0	-2.320479e-01
309.004460	1.349288	dec_choice	1.349288	16.000000	n/a	0	0	-2.291667e-01
309.004460	1.349288	dec_social_reject	1.349288	16.000000	n/a	0	0	3.676471e-03
309.004460	1.349288	dec_reject	1.349288	16.000000	n/a	0	0	-2.840909e-03
309.004460	1.349288	dec_social_low	1.349288	16.000000	n/a	0	-2.291667e-01	-2.291667e-01
309.004460	1.349288	dec_social_reject_low	1.349288	16.000000	n/a	2	-1.041667e-01	-2.291667e-01
315.836580	1.883961	dec_nonsocial_choice	1.883961	32.000000	n/a	16	2.679521e-01	2.679521e-01
315.836580	1.883961	dec_choice	1.883961	32.000000	n/a	16	2.649457e-01	2.649457e-01
315.836580	1.883961	dec_nonsocial_accept	1.883961	32.000000	n/a	16	2.052083e-01	2.052083e-01
315.836580	1.883961	dec_accept	1.883961	32.000000	n/a	16	2.205882e-01	2.205882e-01
315.836580	1.883961	dec_nonsocial_accept_high	1.883961	32.000000	n/a	16	1.850962e-01	1.850962e-01
328.320500	2.866166	dec_nonsocial_choice	2.866166	32.000000	n/a	0	0	-2.320479e-01
328.320500	2.866166	dec_choice	2.866166	32.000000	n/a	0	0	-2.350543e-01
328.320500	2.866166	dec_nonsocial_reject	2.866166	32.000000	n/a	0	0	-5.882353e-02
328.320500	2.866166	dec_reject	2.866166	32.000000	n/a	0	0	-4.687500e-02
328.320500	2.866166	dec_nonsocial_reject_low	2.866166	32.000000	n/a	2	-6.534091e-02	-1.278409e-01
335.969800	2.400497	dec_nonsocial_choice	2.400497	32.000000	n/a	3	-1.382979e-01	-1.382979e-01
335.969800	2.400497	dec_choice	2.400497	32.000000	n/a	3	-1.413043e-01	-1.413043e-01
335.969800	2.400497	dec_nonsocial_accept	2.400497	32.000000	n/a	3	-2.010417e-01	-2.010417e-01
335.969800	2.400497	dec_accept	2.400497	32.000000	n/a	3	-1.856618e-01	-1.856618e-01
335.969800	2.400497	dec_nonsocial_low	2.400497	32.000000	n/a	3	-1.413043e-01	-1.413043e-01
335.969800	2.400497	dec_nonsocial_accept_low	2.400497	32.000000	n/a	3	-1.856618e-01	-1.856618e-01
345.220430	1.732729	dec_social_choice	1.732729	32.000000	n/a	8	1.795213e-02	1.795213e-02
345.220430	1.732729	dec_choice	1.732729	32.000000	n/a	8	2.083333e-02	2.083333e-02
345.220430	1.732729	dec_social_accept	1.732729	32.000000	n/a	8	-4.479167e-02	-4.479167e-02
345.220430	1.732729	dec_accept	1.732729	32.000000	n/a	8	-6.490385e-02	-6.490385e-02
345.220430	1.732729	dec_social_high	1.732729	32.000000	n/a	8	2.083333e-02	2.083333e-02
345.220430	1.732729	dec_social_accept_high	1.732729	32.000000	n/a	8	2.083333e-02	2.083333e-02
356.087520	2.283260	dec_social_choice	2.283260	32.000000	n/a	0	0	-2.320479e-01
356.087520	2.283260	dec_choice	2.283260	32.000000	n/a	0	0	-2.291667e-01
356.087520	2.283260	dec_social_reject	2.283260	32.000000	n/a	0	0	-2.757353e-02
356.087520	2.283260	dec_reject	2.283260	32.000000	n/a	0	0	-3.409091e-02
356.087520	2.283260	dec_social_reject_low	2.283260	32.000000	n/a	3	-1.354167e-01	-2.291667e-01
363.736850	1.049967	dec_social_choice	1.049967	32.000000	n/a	8	1.795213e-02	1.795213e-02
363.736850	1.049967	dec_choice	1.049967	32.000000	n/a	8	2.083333e-02	2.083333e-02
363.736850	1.049967	dec_social_accept	1.049967	32.000000	n/a	8	-4.479167e-02	-4.479167e-02
363.736850	1.049967	dec_accept	1.049967	32.000000	n/a	8	-6.490385e-02	-6.490385e-02
363.736850	1.049967	dec_social_accept_high	1.049967	32.000000	n/a	8	2.083333e-02	2.083333e-02
372.986570	1.350210	dec_nonsocial_choice	1.350210	32.000000	n/a	3	-1.382979e-01	-1.382979e-01
372.986570	1.350210	dec_choice	1.350210	32.000000	n/a	3	-1.413043e-01	-1.413043e-01
372.986570	1.350210	dec_nonsocial_accept	1.350210	32.000000	n/a	3	-2.010417e-01	-2.010417e-01
372.986570	1.350210	dec_accept	1.350210	32.000000	n/a	3	-1.856618e-01	-1.856618e-01
372.986570	1.350210	dec_nonsocial_low	1.350210	32.000000	n/a	3	-1.413043e-01	-1.413043e-01
372.986570	1.350210	dec_nonsocial_accept_low	1.350210	32.000000	n/a	3	-1.856618e-01	-1.856618e-01
