onset	duration	trial_type	response_time	Endowment	Endowment_pmod	Decision	Decision_pmod	Offer_pmod
4.637785	2	cue_social	n/a	32	5	n/a	n/a	n/a
4.637785	2	cue_social_high	n/a	32	7	n/a	n/a	n/a
11.449296	2	cue_social	n/a	16	-11	n/a	n/a	n/a
11.449296	2	cue_social_low	n/a	16	-9	n/a	n/a	n/a
18.196367	2	cue_social	n/a	32	5	n/a	n/a	n/a
18.196367	2	cue_social_high	n/a	32	7	n/a	n/a	n/a
25.017506	2	cue_nonsocial	n/a	16	-9	n/a	n/a	n/a
25.017506	2	cue_nonsocial_low	n/a	16	-11	n/a	n/a	n/a
34.284145	2	cue_nonsocial	n/a	16	-9	n/a	n/a	n/a
34.284145	2	cue_nonsocial_low	n/a	16	-11	n/a	n/a	n/a
41.117462	2	cue_nonsocial	n/a	32	7	n/a	n/a	n/a
41.117462	2	cue_nonsocial_high	n/a	32	5	n/a	n/a	n/a
50.482082	2	cue_social	n/a	32	5	n/a	n/a	n/a
50.482082	2	cue_social_high	n/a	32	7	n/a	n/a	n/a
57.217520	2	cue_nonsocial	n/a	16	-9	n/a	n/a	n/a
57.217520	2	cue_nonsocial_low	n/a	16	-11	n/a	n/a	n/a
64.850830	2	cue_nonsocial	n/a	32	7	n/a	n/a	n/a
64.850830	2	cue_nonsocial_high	n/a	32	5	n/a	n/a	n/a
71.683870	2	cue_nonsocial	n/a	16	-9	n/a	n/a	n/a
71.683870	2	cue_nonsocial_low	n/a	16	-11	n/a	n/a	n/a
82.650670	2	cue_social	n/a	16	-11	n/a	n/a	n/a
82.650670	2	cue_social_low	n/a	16	-9	n/a	n/a	n/a
89.383810	2	cue_nonsocial	n/a	32	7	n/a	n/a	n/a
89.383810	2	cue_nonsocial_high	n/a	32	5	n/a	n/a	n/a
96.217500	2	cue_nonsocial	n/a	32	7	n/a	n/a	n/a
96.217500	2	cue_nonsocial_high	n/a	32	5	n/a	n/a	n/a
103.948930	2	cue_social	n/a	32	5	n/a	n/a	n/a
103.948930	2	cue_social_high	n/a	32	7	n/a	n/a	n/a
110.700424	2	cue_nonsocial	n/a	32	7	n/a	n/a	n/a
110.700424	2	cue_nonsocial_high	n/a	32	5	n/a	n/a	n/a
118.350586	2	cue_nonsocial	n/a	32	7	n/a	n/a	n/a
118.350586	2	cue_nonsocial_high	n/a	32	5	n/a	n/a	n/a
127.693344	2	cue_social	n/a	32	5	n/a	n/a	n/a
127.693344	2	cue_social_high	n/a	32	7	n/a	n/a	n/a
134.555200	2	cue_social	n/a	32	5	n/a	n/a	n/a
134.555200	2	cue_social_high	n/a	32	7	n/a	n/a	n/a
142.100620	2	cue_nonsocial	n/a	16	-9	n/a	n/a	n/a
142.100620	2	cue_nonsocial_low	n/a	16	-11	n/a	n/a	n/a
149.750400	2	cue_nonsocial	n/a	32	7	n/a	n/a	n/a
149.750400	2	cue_nonsocial_high	n/a	32	5	n/a	n/a	n/a
156.583830	2	cue_nonsocial	n/a	32	7	n/a	n/a	n/a
156.583830	2	cue_nonsocial_high	n/a	32	5	n/a	n/a	n/a
163.514800	2	cue_social	n/a	32	5	n/a	n/a	n/a
163.514800	2	cue_social_high	n/a	32	7	n/a	n/a	n/a
170.343730	2	cue_social	n/a	16	-11	n/a	n/a	n/a
170.343730	2	cue_social_low	n/a	16	-9	n/a	n/a	n/a
177.208530	2	cue_social	n/a	16	-11	n/a	n/a	n/a
177.208530	2	cue_social_low	n/a	16	-9	n/a	n/a	n/a
184.031080	2	cue_social	n/a	32	5	n/a	n/a	n/a
184.031080	2	cue_social_high	n/a	32	7	n/a	n/a	n/a
193.271100	2	cue_social	n/a	32	5	n/a	n/a	n/a
193.271100	2	cue_social_high	n/a	32	7	n/a	n/a	n/a
200.093500	2	cue_social	n/a	32	5	n/a	n/a	n/a
200.093500	2	cue_social_high	n/a	32	7	n/a	n/a	n/a
206.833700	2	cue_nonsocial	n/a	32	7	n/a	n/a	n/a
206.833700	2	cue_nonsocial_high	n/a	32	5	n/a	n/a	n/a
213.666350	2	cue_social	n/a	16	-11	n/a	n/a	n/a
213.666350	2	cue_social_low	n/a	16	-9	n/a	n/a	n/a
224.533580	2	cue_nonsocial	n/a	16	-9	n/a	n/a	n/a
224.533580	2	cue_nonsocial_low	n/a	16	-11	n/a	n/a	n/a
232.252760	2	cue_social	n/a	32	5	n/a	n/a	n/a
232.252760	2	cue_social_high	n/a	32	7	n/a	n/a	n/a
239.835190	2	cue_nonsocial	n/a	32	7	n/a	n/a	n/a
239.835190	2	cue_nonsocial_high	n/a	32	5	n/a	n/a	n/a
247.553740	2	cue_social	n/a	16	-11	n/a	n/a	n/a
247.553740	2	cue_social_low	n/a	16	-9	n/a	n/a	n/a
255.116680	2	cue_nonsocial	n/a	32	7	n/a	n/a	n/a
255.116680	2	cue_nonsocial_high	n/a	32	5	n/a	n/a	n/a
262.850740	2	cue_social	n/a	16	-11	n/a	n/a	n/a
262.850740	2	cue_social_low	n/a	16	-9	n/a	n/a	n/a
269.701900	2	cue_social	n/a	32	5	n/a	n/a	n/a
269.701900	2	cue_social_high	n/a	32	7	n/a	n/a	n/a
282.220730	2	cue_social	n/a	32	5	n/a	n/a	n/a
282.220730	2	cue_social_high	n/a	32	7	n/a	n/a	n/a
288.933900	2	cue_nonsocial	n/a	16	-9	n/a	n/a	n/a
288.933900	2	cue_nonsocial_low	n/a	16	-11	n/a	n/a	n/a
295.766750	2	cue_nonsocial	n/a	16	-9	n/a	n/a	n/a
295.766750	2	cue_nonsocial_low	n/a	16	-11	n/a	n/a	n/a
302.600220	2	cue_nonsocial	n/a	32	7	n/a	n/a	n/a
302.600220	2	cue_nonsocial_high	n/a	32	5	n/a	n/a	n/a
310.251160	2	cue_nonsocial	n/a	16	-9	n/a	n/a	n/a
310.251160	2	cue_nonsocial_low	n/a	16	-11	n/a	n/a	n/a
317.916440	2	cue_nonsocial	n/a	16	-9	n/a	n/a	n/a
317.916440	2	cue_nonsocial_low	n/a	16	-11	n/a	n/a	n/a
324.761440	2	cue_social	n/a	32	5	n/a	n/a	n/a
324.761440	2	cue_social_high	n/a	32	7	n/a	n/a	n/a
332.383240	2	cue_nonsocial	n/a	32	7	n/a	n/a	n/a
332.383240	2	cue_nonsocial_high	n/a	32	5	n/a	n/a	n/a
339.312700	2	cue_social	n/a	32	5	n/a	n/a	n/a
339.312700	2	cue_social_high	n/a	32	7	n/a	n/a	n/a
348.466920	2	cue_nonsocial	n/a	32	7	n/a	n/a	n/a
348.466920	2	cue_nonsocial_high	n/a	32	5	n/a	n/a	n/a
359.446720	2	cue_social	n/a	16	-11	n/a	n/a	n/a
359.446720	2	cue_social_low	n/a	16	-9	n/a	n/a	n/a
368.686920	2	cue_social	n/a	32	5	n/a	n/a	n/a
368.686920	2	cue_social_high	n/a	32	7	n/a	n/a	n/a
6.523200	1.650130	dec_social_choice	1.650130	32.000000	n/a	16	2.663043e-01	2.663043e-01
6.523200	1.650130	dec_choice	1.650130	32.000000	n/a	16	2.695312e-01	2.695312e-01
6.523200	1.650130	dec_social_accept	1.650130	32.000000	n/a	16	1.838942e-01	1.838942e-01
6.523200	1.650130	dec_accept	1.650130	32.000000	n/a	16	1.964286e-01	1.964286e-01
6.523200	1.650130	dec_social_high	1.650130	32.000000	n/a	16	2.695312e-01	2.695312e-01
6.523200	1.650130	dec_social_accept_high	1.650130	32.000000	n/a	16	2.695312e-01	2.695312e-01
13.356513	1.116301	dec_social_choice	1.116301	16.000000	n/a	4	1.630435e-02	1.630435e-02
13.356513	1.116301	dec_choice	1.116301	16.000000	n/a	4	1.953125e-02	1.953125e-02
13.356513	1.116301	dec_social_accept	1.116301	16.000000	n/a	4	-6.610577e-02	-6.610577e-02
13.356513	1.116301	dec_accept	1.116301	16.000000	n/a	4	-5.357143e-02	-5.357143e-02
13.356513	1.116301	dec_social_high	1.116301	16.000000	n/a	4	1.953125e-02	1.953125e-02
13.356513	1.116301	dec_social_accept_high	1.116301	16.000000	n/a	4	1.953125e-02	1.953125e-02
20.188948	0.650977	dec_social_choice	0.650977	32.000000	n/a	16	2.663043e-01	2.663043e-01
20.188948	0.650977	dec_choice	0.650977	32.000000	n/a	16	2.695312e-01	2.695312e-01
20.188948	0.650977	dec_social_accept	0.650977	32.000000	n/a	16	1.838942e-01	1.838942e-01
20.188948	0.650977	dec_accept	0.650977	32.000000	n/a	16	1.964286e-01	1.964286e-01
20.188948	0.650977	dec_social_high	0.650977	32.000000	n/a	16	2.695312e-01	2.695312e-01
20.188948	0.650977	dec_social_accept_high	0.650977	32.000000	n/a	16	2.695312e-01	2.695312e-01
27.023058	1.516325	dec_nonsocial_choice	1.516325	16.000000	n/a	8	2.663043e-01	2.663043e-01
27.023058	1.516325	dec_choice	1.516325	16.000000	n/a	8	2.627841e-01	2.627841e-01
27.023058	1.516325	dec_nonsocial_accept	1.516325	16.000000	n/a	8	1.838942e-01	1.838942e-01
27.023058	1.516325	dec_accept	1.516325	16.000000	n/a	8	1.692708e-01	1.692708e-01
27.023058	1.516325	dec_nonsocial_high	1.516325	16.000000	n/a	8	2.627841e-01	2.627841e-01
27.023058	1.516325	dec_nonsocial_accept_high	1.516325	16.000000	n/a	8	1.692708e-01	1.692708e-01
36.290325	0.882833	dec_nonsocial_choice	0.882833	16.000000	n/a	0	0	-2.336957e-01
36.290325	0.882833	dec_choice	0.882833	16.000000	n/a	0	0	-2.372159e-01
36.290325	0.882833	dec_nonsocial_reject	0.882833	16.000000	n/a	0	0	-1.562500e-03
36.290325	0.882833	dec_reject	0.882833	16.000000	n/a	0	0	0
36.290325	0.882833	dec_nonsocial_reject_low	0.882833	16.000000	n/a	2	-3.125000e-03	-1.281250e-01
43.123810	1.633410	dec_nonsocial_choice	1.633410	32.000000	n/a	8	1.630435e-02	1.630435e-02
43.123810	1.633410	dec_choice	1.633410	32.000000	n/a	8	1.278409e-02	1.278409e-02
43.123810	1.633410	dec_nonsocial_accept	1.633410	32.000000	n/a	8	-6.610577e-02	-6.610577e-02
43.123810	1.633410	dec_accept	1.633410	32.000000	n/a	8	-8.072917e-02	-8.072917e-02
43.123810	1.633410	dec_nonsocial_high	1.633410	32.000000	n/a	8	1.278409e-02	1.278409e-02
43.123810	1.633410	dec_nonsocial_accept_high	1.633410	32.000000	n/a	8	-8.072917e-02	-8.072917e-02
52.389840	1.416065	dec_social_choice	1.416065	32.000000	n/a	8	1.630435e-02	1.630435e-02
52.389840	1.416065	dec_choice	1.416065	32.000000	n/a	8	1.953125e-02	1.953125e-02
52.389840	1.416065	dec_social_accept	1.416065	32.000000	n/a	8	-6.610577e-02	-6.610577e-02
52.389840	1.416065	dec_accept	1.416065	32.000000	n/a	8	-5.357143e-02	-5.357143e-02
52.389840	1.416065	dec_social_accept_high	1.416065	32.000000	n/a	8	1.953125e-02	1.953125e-02
59.223064	1.350148	dec_nonsocial_choice	1.350148	16.000000	n/a	8	2.663043e-01	2.663043e-01
59.223064	1.350148	dec_choice	1.350148	16.000000	n/a	8	2.627841e-01	2.627841e-01
59.223064	1.350148	dec_nonsocial_accept	1.350148	16.000000	n/a	8	1.838942e-01	1.838942e-01
59.223064	1.350148	dec_accept	1.350148	16.000000	n/a	8	1.692708e-01	1.692708e-01
59.223064	1.350148	dec_nonsocial_high	1.350148	16.000000	n/a	8	2.627841e-01	2.627841e-01
59.223064	1.350148	dec_nonsocial_accept_high	1.350148	16.000000	n/a	8	1.692708e-01	1.692708e-01
66.856850	1.799541	dec_nonsocial_choice	1.799541	32.000000	n/a	16	2.663043e-01	2.663043e-01
66.856850	1.799541	dec_choice	1.799541	32.000000	n/a	16	2.627841e-01	2.627841e-01
66.856850	1.799541	dec_nonsocial_accept	1.799541	32.000000	n/a	16	1.838942e-01	1.838942e-01
66.856850	1.799541	dec_accept	1.799541	32.000000	n/a	16	1.692708e-01	1.692708e-01
66.856850	1.799541	dec_nonsocial_accept_high	1.799541	32.000000	n/a	16	1.964286e-01	1.964286e-01
73.689660	2.033286	dec_nonsocial_choice	2.033286	16.000000	n/a	0	0	-2.336957e-01
73.689660	2.033286	dec_choice	2.033286	16.000000	n/a	0	0	-2.372159e-01
73.689660	2.033286	dec_nonsocial_reject	2.033286	16.000000	n/a	0	0	-1.562500e-03
73.689660	2.033286	dec_reject	2.033286	16.000000	n/a	0	0	0
73.689660	2.033286	dec_nonsocial_reject_low	2.033286	16.000000	n/a	2	-3.125000e-03	-1.281250e-01
84.556250	1.234913	dec_social_choice	1.234913	16.000000	n/a	2	-1.086957e-01	-1.086957e-01
84.556250	1.234913	dec_choice	1.234913	16.000000	n/a	2	-1.054688e-01	-1.054688e-01
84.556250	1.234913	dec_social_accept	1.234913	16.000000	n/a	2	-1.911058e-01	-1.911058e-01
84.556250	1.234913	dec_accept	1.234913	16.000000	n/a	2	-1.785714e-01	-1.785714e-01
84.556250	1.234913	dec_social_low	1.234913	16.000000	n/a	2	-1.054688e-01	-1.054688e-01
84.556250	1.234913	dec_social_accept_low	1.234913	16.000000	n/a	2	-1.054688e-01	-1.054688e-01
91.390200	1.649585	dec_nonsocial_choice	1.649585	32.000000	n/a	0	0	-2.336957e-01
91.390200	1.649585	dec_choice	1.649585	32.000000	n/a	0	0	-2.372159e-01
91.390200	1.649585	dec_nonsocial_reject	1.649585	32.000000	n/a	0	0	-3.281250e-02
91.390200	1.649585	dec_reject	1.649585	32.000000	n/a	0	0	-3.125000e-02
91.390200	1.649585	dec_nonsocial_low	1.649585	32.000000	n/a	0	-2.372159e-01	-2.372159e-01
91.390200	1.649585	dec_nonsocial_reject_low	1.649585	32.000000	n/a	3	-3.125000e-02	-1.250000e-01
98.222850	1.433555	dec_nonsocial_choice	1.433555	32.000000	n/a	3	-1.399457e-01	-1.399457e-01
98.222850	1.433555	dec_choice	1.433555	32.000000	n/a	3	-1.434659e-01	-1.434659e-01
98.222850	1.433555	dec_nonsocial_accept	1.433555	32.000000	n/a	3	-2.223558e-01	-2.223558e-01
98.222850	1.433555	dec_accept	1.433555	32.000000	n/a	3	-2.369792e-01	-2.369792e-01
98.222850	1.433555	dec_nonsocial_accept_low	1.433555	32.000000	n/a	3	-2.098214e-01	-2.098214e-01
105.872930	2.150358	dec_social_choice	2.150358	32.000000	n/a	0	0	-2.336957e-01
105.872930	2.150358	dec_choice	2.150358	32.000000	n/a	0	0	-2.304688e-01
105.872930	2.150358	dec_social_reject	2.150358	32.000000	n/a	0	0	-6.406250e-02
105.872930	2.150358	dec_reject	2.150358	32.000000	n/a	0	0	-6.562500e-02
105.872930	2.150358	dec_social_reject_low	2.150358	32.000000	n/a	2	-1.679688e-01	-2.304688e-01
112.706220	1.950414	dec_nonsocial_choice	1.950414	32.000000	n/a	2	-1.711957e-01	-1.711957e-01
112.706220	1.950414	dec_choice	1.950414	32.000000	n/a	2	-1.747159e-01	-1.747159e-01
112.706220	1.950414	dec_nonsocial_accept	1.950414	32.000000	n/a	2	-2.536058e-01	-2.536058e-01
112.706220	1.950414	dec_accept	1.950414	32.000000	n/a	2	-2.682292e-01	-2.682292e-01
112.706220	1.950414	dec_nonsocial_accept_low	1.950414	32.000000	n/a	2	-2.410714e-01	-2.410714e-01
120.355920	2.366453	dec_nonsocial_choice	2.366453	32.000000	n/a	0	0	-2.336957e-01
120.355920	2.366453	dec_choice	2.366453	32.000000	n/a	0	0	-2.372159e-01
120.355920	2.366453	dec_nonsocial_reject	2.366453	32.000000	n/a	0	0	1.234375e-01
120.355920	2.366453	dec_reject	2.366453	32.000000	n/a	0	0	1.250000e-01
120.355920	2.366453	dec_nonsocial_reject_low	2.366453	32.000000	n/a	8	1.218750e-01	-1.281250e-01
129.606750	1.665420	dec_social_choice	1.665420	32.000000	n/a	0	0	-2.336957e-01
129.606750	1.665420	dec_choice	1.665420	32.000000	n/a	0	0	-2.304688e-01
129.606750	1.665420	dec_social_reject	1.665420	32.000000	n/a	0	0	-6.406250e-02
129.606750	1.665420	dec_reject	1.665420	32.000000	n/a	0	0	-6.562500e-02
129.606750	1.665420	dec_social_low	1.665420	32.000000	n/a	0	-2.304688e-01	-2.304688e-01
129.606750	1.665420	dec_social_reject_low	1.665420	32.000000	n/a	2	-1.679688e-01	-2.304688e-01
136.455660	1.766420	dec_social_choice	1.766420	32.000000	n/a	0	0	-2.336957e-01
136.455660	1.766420	dec_choice	1.766420	32.000000	n/a	0	0	-2.304688e-01
136.455660	1.766420	dec_social_reject	1.766420	32.000000	n/a	0	0	-6.406250e-02
136.455660	1.766420	dec_reject	1.766420	32.000000	n/a	0	0	-6.562500e-02
136.455660	1.766420	dec_social_low	1.766420	32.000000	n/a	0	-2.304688e-01	-2.304688e-01
136.455660	1.766420	dec_social_reject_low	1.766420	32.000000	n/a	2	-1.679688e-01	-2.304688e-01
144.106200	1.800358	dec_nonsocial_choice	1.800358	16.000000	n/a	0	0	-2.336957e-01
144.106200	1.800358	dec_choice	1.800358	16.000000	n/a	0	0	-2.372159e-01
144.106200	1.800358	dec_nonsocial_reject	1.800358	16.000000	n/a	0	0	-6.406250e-02
144.106200	1.800358	dec_reject	1.800358	16.000000	n/a	0	0	-6.250000e-02
144.106200	1.800358	dec_nonsocial_reject_low	1.800358	16.000000	n/a	1	-6.562500e-02	-1.281250e-01
151.755780	1.583605	dec_nonsocial_choice	1.583605	32.000000	n/a	16	2.663043e-01	2.663043e-01
151.755780	1.583605	dec_choice	1.583605	32.000000	n/a	16	2.627841e-01	2.627841e-01
151.755780	1.583605	dec_nonsocial_accept	1.583605	32.000000	n/a	16	1.838942e-01	1.838942e-01
151.755780	1.583605	dec_accept	1.583605	32.000000	n/a	16	1.692708e-01	1.692708e-01
151.755780	1.583605	dec_nonsocial_accept_high	1.583605	32.000000	n/a	16	1.964286e-01	1.964286e-01
158.589740	1.949634	dec_nonsocial_choice	1.949634	32.000000	n/a	0	0	-2.336957e-01
158.589740	1.949634	dec_choice	1.949634	32.000000	n/a	0	0	-2.372159e-01
158.589740	1.949634	dec_nonsocial_reject	1.949634	32.000000	n/a	0	0	-3.281250e-02
158.589740	1.949634	dec_reject	1.949634	32.000000	n/a	0	0	-3.125000e-02
158.589740	1.949634	dec_nonsocial_reject_low	1.949634	32.000000	n/a	3	-3.437500e-02	-1.281250e-01
165.423700	1.699061	dec_social_choice	1.699061	32.000000	n/a	0	0	-2.336957e-01
165.423700	1.699061	dec_choice	1.699061	32.000000	n/a	0	0	-2.304688e-01
165.423700	1.699061	dec_social_reject	1.699061	32.000000	n/a	0	0	-6.406250e-02
165.423700	1.699061	dec_reject	1.699061	32.000000	n/a	0	0	-6.562500e-02
165.423700	1.699061	dec_social_low	1.699061	32.000000	n/a	0	-2.304688e-01	-2.304688e-01
165.423700	1.699061	dec_social_reject_low	1.699061	32.000000	n/a	2	-1.679688e-01	-2.304688e-01
172.256030	2.284125	dec_social_choice	2.284125	16.000000	n/a	0	0	-2.336957e-01
172.256030	2.284125	dec_choice	2.284125	16.000000	n/a	0	0	-2.304688e-01
172.256030	2.284125	dec_social_reject	2.284125	16.000000	n/a	0	0	1.234375e-01
172.256030	2.284125	dec_reject	2.284125	16.000000	n/a	0	0	1.218750e-01
172.256030	2.284125	dec_social_reject_low	2.284125	16.000000	n/a	4	1.953125e-02	-2.304688e-01
179.089520	1.499791	dec_social_choice	1.499791	16.000000	n/a	0	0	-2.336957e-01
179.089520	1.499791	dec_choice	1.499791	16.000000	n/a	0	0	-2.304688e-01
179.089520	1.499791	dec_social_reject	1.499791	16.000000	n/a	0	0	1.234375e-01
179.089520	1.499791	dec_reject	1.499791	16.000000	n/a	0	0	1.218750e-01
179.089520	1.499791	dec_social_reject_low	1.499791	16.000000	n/a	4	1.953125e-02	-2.304688e-01
185.922100	1.700104	dec_social_choice	1.700104	32.000000	n/a	16	2.663043e-01	2.663043e-01
185.922100	1.700104	dec_choice	1.700104	32.000000	n/a	16	2.695312e-01	2.695312e-01
185.922100	1.700104	dec_social_accept	1.700104	32.000000	n/a	16	1.838942e-01	1.838942e-01
185.922100	1.700104	dec_accept	1.700104	32.000000	n/a	16	1.964286e-01	1.964286e-01
185.922100	1.700104	dec_social_high	1.700104	32.000000	n/a	16	2.695312e-01	2.695312e-01
185.922100	1.700104	dec_social_accept_high	1.700104	32.000000	n/a	16	2.695312e-01	2.695312e-01
195.171690	1.884721	dec_social_choice	1.884721	32.000000	n/a	3	-1.399457e-01	-1.399457e-01
195.171690	1.884721	dec_choice	1.884721	32.000000	n/a	3	-1.367188e-01	-1.367188e-01
195.171690	1.884721	dec_social_accept	1.884721	32.000000	n/a	3	-2.223558e-01	-2.223558e-01
195.171690	1.884721	dec_accept	1.884721	32.000000	n/a	3	-2.098214e-01	-2.098214e-01
195.171690	1.884721	dec_social_low	1.884721	32.000000	n/a	3	-1.367188e-01	-1.367188e-01
195.171690	1.884721	dec_social_accept_low	1.884721	32.000000	n/a	3	-1.367188e-01	-1.367188e-01
202.006560	1.315640	dec_social_choice	1.315640	32.000000	n/a	16	2.663043e-01	2.663043e-01
202.006560	1.315640	dec_choice	1.315640	32.000000	n/a	16	2.695312e-01	2.695312e-01
202.006560	1.315640	dec_social_accept	1.315640	32.000000	n/a	16	1.838942e-01	1.838942e-01
202.006560	1.315640	dec_accept	1.315640	32.000000	n/a	16	1.964286e-01	1.964286e-01
202.006560	1.315640	dec_social_high	1.315640	32.000000	n/a	16	2.695312e-01	2.695312e-01
202.006560	1.315640	dec_social_accept_high	1.315640	32.000000	n/a	16	2.695312e-01	2.695312e-01
208.840130	2.449290	dec_nonsocial_choice	2.449290	32.000000	n/a	16	2.663043e-01	2.663043e-01
208.840130	2.449290	dec_choice	2.449290	32.000000	n/a	16	2.627841e-01	2.627841e-01
208.840130	2.449290	dec_nonsocial_accept	2.449290	32.000000	n/a	16	1.838942e-01	1.838942e-01
208.840130	2.449290	dec_accept	2.449290	32.000000	n/a	16	1.692708e-01	1.692708e-01
208.840130	2.449290	dec_nonsocial_high	2.449290	32.000000	n/a	16	2.627841e-01	2.627841e-01
208.840130	2.449290	dec_nonsocial_accept_high	2.449290	32.000000	n/a	16	1.692708e-01	1.692708e-01
215.672330	1.600496	dec_social_choice	1.600496	16.000000	n/a	0	0	-2.336957e-01
215.672330	1.600496	dec_choice	1.600496	16.000000	n/a	0	0	-2.304688e-01
215.672330	1.600496	dec_social_reject	1.600496	16.000000	n/a	0	0	1.234375e-01
215.672330	1.600496	dec_reject	1.600496	16.000000	n/a	0	0	1.218750e-01
215.672330	1.600496	dec_social_low	1.600496	16.000000	n/a	0	-2.304688e-01	-2.304688e-01
215.672330	1.600496	dec_social_reject_low	1.600496	16.000000	n/a	4	1.953125e-02	-2.304688e-01
226.540200	3.049096	dec_nonsocial_choice	3.049096	16.000000	n/a	0	0	-2.336957e-01
226.540200	3.049096	dec_choice	3.049096	16.000000	n/a	0	0	-2.372159e-01
226.540200	3.049096	dec_nonsocial_reject	3.049096	16.000000	n/a	0	0	1.234375e-01
226.540200	3.049096	dec_reject	3.049096	16.000000	n/a	0	0	1.250000e-01
226.540200	3.049096	dec_nonsocial_reject_low	3.049096	16.000000	n/a	4	1.218750e-01	-1.281250e-01
234.189700	2.115812	dec_social_choice	2.115812	32.000000	n/a	3	-1.399457e-01	-1.399457e-01
234.189700	2.115812	dec_choice	2.115812	32.000000	n/a	3	-1.367188e-01	-1.367188e-01
234.189700	2.115812	dec_social_accept	2.115812	32.000000	n/a	3	-2.223558e-01	-2.223558e-01
234.189700	2.115812	dec_accept	2.115812	32.000000	n/a	3	-2.098214e-01	-2.098214e-01
234.189700	2.115812	dec_social_accept_low	2.115812	32.000000	n/a	3	-1.367188e-01	-1.367188e-01
241.839400	1.850487	dec_nonsocial_choice	1.850487	32.000000	n/a	8	1.630435e-02	1.630435e-02
241.839400	1.850487	dec_choice	1.850487	32.000000	n/a	8	1.278409e-02	1.278409e-02
241.839400	1.850487	dec_nonsocial_accept	1.850487	32.000000	n/a	8	-6.610577e-02	-6.610577e-02
241.839400	1.850487	dec_accept	1.850487	32.000000	n/a	8	-8.072917e-02	-8.072917e-02
241.839400	1.850487	dec_nonsocial_accept_high	1.850487	32.000000	n/a	8	-5.357143e-02	-5.357143e-02
249.472960	1.682889	dec_social_choice	1.682889	16.000000	n/a	2	-1.086957e-01	-1.086957e-01
249.472960	1.682889	dec_choice	1.682889	16.000000	n/a	2	-1.054688e-01	-1.054688e-01
249.472960	1.682889	dec_social_accept	1.682889	16.000000	n/a	2	-1.911058e-01	-1.911058e-01
249.472960	1.682889	dec_accept	1.682889	16.000000	n/a	2	-1.785714e-01	-1.785714e-01
249.472960	1.682889	dec_social_low	1.682889	16.000000	n/a	2	-1.054688e-01	-1.054688e-01
249.472960	1.682889	dec_social_accept_low	1.682889	16.000000	n/a	2	-1.054688e-01	-1.054688e-01
257.122500	3.766946	missed_trial	3.766946	32.000000	n/a	n/a	n/a	n/a
264.788600	2.134607	dec_social_choice	2.134607	16.000000	n/a	8	2.663043e-01	2.663043e-01
264.788600	2.134607	dec_choice	2.134607	16.000000	n/a	8	2.695312e-01	2.695312e-01
264.788600	2.134607	dec_social_accept	2.134607	16.000000	n/a	8	1.838942e-01	1.838942e-01
264.788600	2.134607	dec_accept	2.134607	16.000000	n/a	8	1.964286e-01	1.964286e-01
264.788600	2.134607	dec_social_high	2.134607	16.000000	n/a	8	2.695312e-01	2.695312e-01
264.788600	2.134607	dec_social_accept_high	2.134607	16.000000	n/a	8	2.695312e-01	2.695312e-01
271.622340	1.132729	dec_social_choice	1.132729	32.000000	n/a	8	1.630435e-02	1.630435e-02
271.622340	1.132729	dec_choice	1.132729	32.000000	n/a	8	1.953125e-02	1.953125e-02
271.622340	1.132729	dec_social_accept	1.132729	32.000000	n/a	8	-6.610577e-02	-6.610577e-02
271.622340	1.132729	dec_accept	1.132729	32.000000	n/a	8	-5.357143e-02	-5.357143e-02
271.622340	1.132729	dec_social_high	1.132729	32.000000	n/a	8	1.953125e-02	1.953125e-02
271.622340	1.132729	dec_social_accept_high	1.132729	32.000000	n/a	8	1.953125e-02	1.953125e-02
284.104980	1.200707	dec_social_choice	1.200707	32.000000	n/a	16	2.663043e-01	2.663043e-01
284.104980	1.200707	dec_choice	1.200707	32.000000	n/a	16	2.695312e-01	2.695312e-01
284.104980	1.200707	dec_social_accept	1.200707	32.000000	n/a	16	1.838942e-01	1.838942e-01
284.104980	1.200707	dec_accept	1.200707	32.000000	n/a	16	1.964286e-01	1.964286e-01
284.104980	1.200707	dec_social_high	1.200707	32.000000	n/a	16	2.695312e-01	2.695312e-01
284.104980	1.200707	dec_social_accept_high	1.200707	32.000000	n/a	16	2.695312e-01	2.695312e-01
290.939270	1.366227	dec_nonsocial_choice	1.366227	16.000000	n/a	4	1.630435e-02	1.630435e-02
290.939270	1.366227	dec_choice	1.366227	16.000000	n/a	4	1.278409e-02	1.278409e-02
290.939270	1.366227	dec_nonsocial_accept	1.366227	16.000000	n/a	4	-6.610577e-02	-6.610577e-02
290.939270	1.366227	dec_accept	1.366227	16.000000	n/a	4	-8.072917e-02	-8.072917e-02
290.939270	1.366227	dec_nonsocial_high	1.366227	16.000000	n/a	4	1.278409e-02	1.278409e-02
290.939270	1.366227	dec_nonsocial_accept_high	1.366227	16.000000	n/a	4	-8.072917e-02	-8.072917e-02
297.772920	1.432631	dec_nonsocial_choice	1.432631	16.000000	n/a	0	0	-2.336957e-01
297.772920	1.432631	dec_choice	1.432631	16.000000	n/a	0	0	-2.372159e-01
297.772920	1.432631	dec_nonsocial_reject	1.432631	16.000000	n/a	0	0	-6.406250e-02
297.772920	1.432631	dec_reject	1.432631	16.000000	n/a	0	0	-6.250000e-02
297.772920	1.432631	dec_nonsocial_low	1.432631	16.000000	n/a	0	-2.372159e-01	-2.372159e-01
297.772920	1.432631	dec_nonsocial_reject_low	1.432631	16.000000	n/a	1	-6.250000e-02	-1.250000e-01
304.606570	1.365655	dec_nonsocial_choice	1.365655	32.000000	n/a	16	2.663043e-01	2.663043e-01
304.606570	1.365655	dec_choice	1.365655	32.000000	n/a	16	2.627841e-01	2.627841e-01
304.606570	1.365655	dec_nonsocial_accept	1.365655	32.000000	n/a	16	1.838942e-01	1.838942e-01
304.606570	1.365655	dec_accept	1.365655	32.000000	n/a	16	1.692708e-01	1.692708e-01
304.606570	1.365655	dec_nonsocial_high	1.365655	32.000000	n/a	16	2.627841e-01	2.627841e-01
304.606570	1.365655	dec_nonsocial_accept_high	1.365655	32.000000	n/a	16	1.692708e-01	1.692708e-01
312.256400	3.766946	missed_trial	3.766946	16.000000	n/a	n/a	n/a	n/a
319.923280	1.849037	dec_nonsocial_choice	1.849037	16.000000	n/a	0	0	-2.336957e-01
319.923280	1.849037	dec_choice	1.849037	16.000000	n/a	0	0	-2.372159e-01
319.923280	1.849037	dec_nonsocial_reject	1.849037	16.000000	n/a	0	0	-1.562500e-03
319.923280	1.849037	dec_reject	1.849037	16.000000	n/a	0	0	0
319.923280	1.849037	dec_nonsocial_reject_low	1.849037	16.000000	n/a	2	-3.125000e-03	-1.281250e-01
326.755580	1.101022	dec_social_choice	1.101022	32.000000	n/a	2	-1.711957e-01	-1.711957e-01
326.755580	1.101022	dec_choice	1.101022	32.000000	n/a	2	-1.679688e-01	-1.679688e-01
326.755580	1.101022	dec_social_accept	1.101022	32.000000	n/a	2	-2.536058e-01	-2.536058e-01
326.755580	1.101022	dec_accept	1.101022	32.000000	n/a	2	-2.410714e-01	-2.410714e-01
326.755580	1.101022	dec_social_low	1.101022	32.000000	n/a	2	-1.679688e-01	-1.679688e-01
326.755580	1.101022	dec_social_accept_low	1.101022	32.000000	n/a	2	-1.679688e-01	-1.679688e-01
334.389340	1.782867	dec_nonsocial_choice	1.782867	32.000000	n/a	2	-1.711957e-01	-1.711957e-01
334.389340	1.782867	dec_choice	1.782867	32.000000	n/a	2	-1.747159e-01	-1.747159e-01
334.389340	1.782867	dec_nonsocial_accept	1.782867	32.000000	n/a	2	-2.536058e-01	-2.536058e-01
334.389340	1.782867	dec_accept	1.782867	32.000000	n/a	2	-2.682292e-01	-2.682292e-01
334.389340	1.782867	dec_nonsocial_low	1.782867	32.000000	n/a	2	-1.747159e-01	-1.747159e-01
334.389340	1.782867	dec_nonsocial_accept_low	1.782867	32.000000	n/a	2	-2.682292e-01	-2.682292e-01
341.222350	2.533260	dec_social_choice	2.533260	32.000000	n/a	0	0	-2.336957e-01
341.222350	2.533260	dec_choice	2.533260	32.000000	n/a	0	0	-2.304688e-01
341.222350	2.533260	dec_social_reject	2.533260	32.000000	n/a	0	0	-6.406250e-02
341.222350	2.533260	dec_reject	2.533260	32.000000	n/a	0	0	-6.562500e-02
341.222350	2.533260	dec_social_low	2.533260	32.000000	n/a	0	-2.304688e-01	-2.304688e-01
341.222350	2.533260	dec_social_reject_low	2.533260	32.000000	n/a	2	-1.679688e-01	-2.304688e-01
350.472320	1.583246	dec_nonsocial_choice	1.583246	32.000000	n/a	0	0	-2.336957e-01
350.472320	1.583246	dec_choice	1.583246	32.000000	n/a	0	0	-2.372159e-01
350.472320	1.583246	dec_nonsocial_reject	1.583246	32.000000	n/a	0	0	-6.406250e-02
350.472320	1.583246	dec_reject	1.583246	32.000000	n/a	0	0	-6.250000e-02
350.472320	1.583246	dec_nonsocial_reject_low	1.583246	32.000000	n/a	2	-6.562500e-02	-1.281250e-01
361.339480	1.415254	dec_social_choice	1.415254	16.000000	n/a	0	0	-2.336957e-01
361.339480	1.415254	dec_choice	1.415254	16.000000	n/a	0	0	-2.304688e-01
361.339480	1.415254	dec_social_reject	1.415254	16.000000	n/a	0	0	-1.562500e-03
361.339480	1.415254	dec_reject	1.415254	16.000000	n/a	0	0	-3.125000e-03
361.339480	1.415254	dec_social_reject_low	1.415254	16.000000	n/a	2	-1.054688e-01	-2.304688e-01
370.605160	1.466522	dec_social_choice	1.466522	32.000000	n/a	0	0	-2.336957e-01
370.605160	1.466522	dec_choice	1.466522	32.000000	n/a	0	0	-2.304688e-01
370.605160	1.466522	dec_social_reject	1.466522	32.000000	n/a	0	0	-3.281250e-02
370.605160	1.466522	dec_reject	1.466522	32.000000	n/a	0	0	-3.437500e-02
370.605160	1.466522	dec_social_reject_low	1.466522	32.000000	n/a	3	-1.367188e-01	-2.304688e-01
