onset	duration	trial_type	response_time	Endowment	Endowment_pmod	Decision	Decision_pmod	Offer_pmod
4.579475	2	cue_social	n/a	16	-8	n/a	n/a	n/a
4.579475	2	cue_social_low	n/a	16	-11	n/a	n/a	n/a
12.165853	2	cue_nonsocial	n/a	16	-11	n/a	n/a	n/a
12.165853	2	cue_nonsocial_low	n/a	16	-8	n/a	n/a	n/a
21.522400	2	cue_social	n/a	16	-8	n/a	n/a	n/a
21.522400	2	cue_social_low	n/a	16	-11	n/a	n/a	n/a
28.265420	2	cue_nonsocial	n/a	32	5	n/a	n/a	n/a
28.265420	2	cue_nonsocial_high	n/a	32	8	n/a	n/a	n/a
35.915817	2	cue_nonsocial	n/a	32	5	n/a	n/a	n/a
35.915817	2	cue_nonsocial_high	n/a	32	8	n/a	n/a	n/a
42.748554	2	cue_nonsocial	n/a	32	5	n/a	n/a	n/a
42.748554	2	cue_nonsocial_high	n/a	32	8	n/a	n/a	n/a
49.676270	2	cue_social	n/a	32	8	n/a	n/a	n/a
49.676270	2	cue_social_high	n/a	32	5	n/a	n/a	n/a
57.232630	2	cue_nonsocial	n/a	32	5	n/a	n/a	n/a
57.232630	2	cue_nonsocial_high	n/a	32	8	n/a	n/a	n/a
64.100250	2	cue_social	n/a	16	-8	n/a	n/a	n/a
64.100250	2	cue_social_low	n/a	16	-11	n/a	n/a	n/a
71.715690	2	cue_nonsocial	n/a	32	5	n/a	n/a	n/a
71.715690	2	cue_nonsocial_high	n/a	32	8	n/a	n/a	n/a
78.649720	2	cue_social	n/a	16	-8	n/a	n/a	n/a
78.649720	2	cue_social_low	n/a	16	-11	n/a	n/a	n/a
86.294830	2	cue_social	n/a	32	8	n/a	n/a	n/a
86.294830	2	cue_social_high	n/a	32	5	n/a	n/a	n/a
97.065090	2	cue_nonsocial	n/a	32	5	n/a	n/a	n/a
97.065090	2	cue_nonsocial_high	n/a	32	8	n/a	n/a	n/a
104.715430	2	cue_nonsocial	n/a	32	5	n/a	n/a	n/a
104.715430	2	cue_nonsocial_high	n/a	32	8	n/a	n/a	n/a
114.055405	2	cue_social	n/a	32	8	n/a	n/a	n/a
114.055405	2	cue_social_high	n/a	32	5	n/a	n/a	n/a
121.729430	2	cue_social	n/a	32	8	n/a	n/a	n/a
121.729430	2	cue_social_high	n/a	32	5	n/a	n/a	n/a
128.496630	2	cue_social	n/a	32	8	n/a	n/a	n/a
128.496630	2	cue_social_high	n/a	32	5	n/a	n/a	n/a
135.298400	2	cue_nonsocial	n/a	32	5	n/a	n/a	n/a
135.298400	2	cue_nonsocial_high	n/a	32	8	n/a	n/a	n/a
146.257800	2	cue_social	n/a	16	-8	n/a	n/a	n/a
146.257800	2	cue_social_low	n/a	16	-11	n/a	n/a	n/a
153.832300	2	cue_nonsocial	n/a	16	-11	n/a	n/a	n/a
153.832300	2	cue_nonsocial_low	n/a	16	-8	n/a	n/a	n/a
160.664870	2	cue_nonsocial	n/a	32	5	n/a	n/a	n/a
160.664870	2	cue_nonsocial_high	n/a	32	8	n/a	n/a	n/a
167.498170	2	cue_nonsocial	n/a	16	-11	n/a	n/a	n/a
167.498170	2	cue_nonsocial_low	n/a	16	-8	n/a	n/a	n/a
174.430740	2	cue_social	n/a	32	8	n/a	n/a	n/a
174.430740	2	cue_social_high	n/a	32	5	n/a	n/a	n/a
183.629290	2	cue_social	n/a	16	-8	n/a	n/a	n/a
183.629290	2	cue_social_low	n/a	16	-11	n/a	n/a	n/a
190.503540	2	cue_social	n/a	32	8	n/a	n/a	n/a
190.503540	2	cue_social_high	n/a	32	5	n/a	n/a	n/a
197.248640	2	cue_nonsocial	n/a	16	-11	n/a	n/a	n/a
197.248640	2	cue_nonsocial_low	n/a	16	-8	n/a	n/a	n/a
204.081330	2	cue_nonsocial	n/a	32	5	n/a	n/a	n/a
204.081330	2	cue_nonsocial_high	n/a	32	8	n/a	n/a	n/a
211.004530	2	cue_social	n/a	16	-8	n/a	n/a	n/a
211.004530	2	cue_social_low	n/a	16	-11	n/a	n/a	n/a
217.846330	2	cue_social	n/a	32	8	n/a	n/a	n/a
217.846330	2	cue_social_high	n/a	32	5	n/a	n/a	n/a
227.015090	2	cue_nonsocial	n/a	32	5	n/a	n/a	n/a
227.015090	2	cue_nonsocial_high	n/a	32	8	n/a	n/a	n/a
233.959050	2	cue_social	n/a	16	-8	n/a	n/a	n/a
233.959050	2	cue_social_low	n/a	16	-11	n/a	n/a	n/a
241.497900	2	cue_nonsocial	n/a	32	5	n/a	n/a	n/a
241.497900	2	cue_nonsocial_high	n/a	32	8	n/a	n/a	n/a
248.331420	2	cue_nonsocial	n/a	16	-11	n/a	n/a	n/a
248.331420	2	cue_nonsocial_low	n/a	16	-8	n/a	n/a	n/a
257.671420	2	cue_social	n/a	32	8	n/a	n/a	n/a
257.671420	2	cue_social_high	n/a	32	5	n/a	n/a	n/a
264.414950	2	cue_nonsocial	n/a	16	-11	n/a	n/a	n/a
264.414950	2	cue_nonsocial_low	n/a	16	-8	n/a	n/a	n/a
275.382050	2	cue_social	n/a	16	-8	n/a	n/a	n/a
275.382050	2	cue_social_low	n/a	16	-11	n/a	n/a	n/a
282.124500	2	cue_social	n/a	16	-8	n/a	n/a	n/a
282.124500	2	cue_social_low	n/a	16	-11	n/a	n/a	n/a
291.381530	2	cue_nonsocial	n/a	32	5	n/a	n/a	n/a
291.381530	2	cue_nonsocial_high	n/a	32	8	n/a	n/a	n/a
298.214800	2	cue_nonsocial	n/a	32	5	n/a	n/a	n/a
298.214800	2	cue_nonsocial_high	n/a	32	8	n/a	n/a	n/a
305.047580	2	cue_nonsocial	n/a	32	5	n/a	n/a	n/a
305.047580	2	cue_nonsocial_high	n/a	32	8	n/a	n/a	n/a
312.788540	2	cue_social	n/a	16	-8	n/a	n/a	n/a
312.788540	2	cue_social_low	n/a	16	-11	n/a	n/a	n/a
320.463650	2	cue_social	n/a	32	8	n/a	n/a	n/a
320.463650	2	cue_social_high	n/a	32	5	n/a	n/a	n/a
329.717960	2	cue_social	n/a	32	8	n/a	n/a	n/a
329.717960	2	cue_social_high	n/a	32	5	n/a	n/a	n/a
342.097840	2	cue_nonsocial	n/a	16	-11	n/a	n/a	n/a
342.097840	2	cue_nonsocial_low	n/a	16	-8	n/a	n/a	n/a
349.835540	2	cue_social	n/a	32	8	n/a	n/a	n/a
349.835540	2	cue_social_high	n/a	32	5	n/a	n/a	n/a
357.397830	2	cue_nonsocial	n/a	32	5	n/a	n/a	n/a
357.397830	2	cue_nonsocial_high	n/a	32	8	n/a	n/a	n/a
364.338530	2	cue_social	n/a	16	-8	n/a	n/a	n/a
364.338530	2	cue_social_low	n/a	16	-11	n/a	n/a	n/a
371.064540	2	cue_nonsocial	n/a	16	-11	n/a	n/a	n/a
371.064540	2	cue_nonsocial_low	n/a	16	-8	n/a	n/a	n/a
6.521952	1.899384	dec_social_choice	1.899384	16.000000	n/a	0	0	-2.311198e-01
6.521952	1.899384	dec_choice	1.899384	16.000000	n/a	0	0	-2.330729e-01
6.521952	1.899384	dec_social_reject	1.899384	16.000000	n/a	0	0	3.804348e-02
6.521952	1.899384	dec_reject	1.899384	16.000000	n/a	0	0	3.385417e-02
6.521952	1.899384	dec_social_reject_low	1.899384	16.000000	n/a	2	-1.080729e-01	-2.330729e-01
14.171789	0.899296	dec_nonsocial_choice	0.899296	16.000000	n/a	0	0	-2.311198e-01
14.171789	0.899296	dec_choice	0.899296	16.000000	n/a	0	0	-2.291667e-01
14.171789	0.899296	dec_nonsocial_reject	0.899296	16.000000	n/a	0	0	3.804348e-02
14.171789	0.899296	dec_reject	0.899296	16.000000	n/a	0	0	4.261364e-02
14.171789	0.899296	dec_nonsocial_reject_low	0.899296	16.000000	n/a	2	3.385417e-02	-9.114583e-02
23.437720	1.449437	dec_social_choice	1.449437	16.000000	n/a	0	0	-2.311198e-01
23.437720	1.449437	dec_choice	1.449437	16.000000	n/a	0	0	-2.330729e-01
23.437720	1.449437	dec_social_reject	1.449437	16.000000	n/a	0	0	-2.445652e-02
23.437720	1.449437	dec_reject	1.449437	16.000000	n/a	0	0	-2.864583e-02
23.437720	1.449437	dec_social_low	1.449437	16.000000	n/a	0	-2.330729e-01	-2.330729e-01
23.437720	1.449437	dec_social_reject_low	1.449437	16.000000	n/a	1	-1.705729e-01	-2.330729e-01
30.271929	1.232344	dec_nonsocial_choice	1.232344	32.000000	n/a	0	0	-2.311198e-01
30.271929	1.232344	dec_choice	1.232344	32.000000	n/a	0	0	-2.291667e-01
30.271929	1.232344	dec_nonsocial_reject	1.232344	32.000000	n/a	0	0	-2.445652e-02
30.271929	1.232344	dec_reject	1.232344	32.000000	n/a	0	0	-1.988636e-02
30.271929	1.232344	dec_nonsocial_low	1.232344	32.000000	n/a	0	-2.291667e-01	-2.291667e-01
30.271929	1.232344	dec_nonsocial_reject_low	1.232344	32.000000	n/a	2	-1.988636e-02	-8.238636e-02
37.921120	1.066363	dec_nonsocial_choice	1.066363	32.000000	n/a	3	-1.373698e-01	-1.373698e-01
37.921120	1.066363	dec_choice	1.066363	32.000000	n/a	3	-1.354167e-01	-1.354167e-01
37.921120	1.066363	dec_nonsocial_accept	1.066363	32.000000	n/a	3	-2.700000e-01	-2.700000e-01
37.921120	1.066363	dec_accept	1.066363	32.000000	n/a	3	-2.596154e-01	-2.596154e-01
37.921120	1.066363	dec_nonsocial_accept_low	1.066363	32.000000	n/a	3	-2.812500e-01	-2.812500e-01
44.754030	0.866653	dec_nonsocial_choice	0.866653	32.000000	n/a	16	2.688802e-01	2.688802e-01
44.754030	0.866653	dec_choice	0.866653	32.000000	n/a	16	2.708333e-01	2.708333e-01
44.754030	0.866653	dec_nonsocial_accept	0.866653	32.000000	n/a	16	1.362500e-01	1.362500e-01
44.754030	0.866653	dec_accept	0.866653	32.000000	n/a	16	1.466346e-01	1.466346e-01
44.754030	0.866653	dec_nonsocial_high	0.866653	32.000000	n/a	16	2.708333e-01	2.708333e-01
44.754030	0.866653	dec_nonsocial_accept_high	0.866653	32.000000	n/a	16	1.466346e-01	1.466346e-01
51.587833	1.915813	dec_social_choice	1.915813	32.000000	n/a	8	1.888021e-02	1.888021e-02
51.587833	1.915813	dec_choice	1.915813	32.000000	n/a	8	1.692708e-02	1.692708e-02
51.587833	1.915813	dec_social_accept	1.915813	32.000000	n/a	8	-1.137500e-01	-1.137500e-01
51.587833	1.915813	dec_accept	1.915813	32.000000	n/a	8	-1.250000e-01	-1.250000e-01
51.587833	1.915813	dec_social_high	1.915813	32.000000	n/a	8	1.692708e-02	1.692708e-02
51.587833	1.915813	dec_social_accept_high	1.915813	32.000000	n/a	8	1.692708e-02	1.692708e-02
59.237972	1.465440	dec_nonsocial_choice	1.465440	32.000000	n/a	8	1.888021e-02	1.888021e-02
59.237972	1.465440	dec_choice	1.465440	32.000000	n/a	8	2.083333e-02	2.083333e-02
59.237972	1.465440	dec_nonsocial_accept	1.465440	32.000000	n/a	8	-1.137500e-01	-1.137500e-01
59.237972	1.465440	dec_accept	1.465440	32.000000	n/a	8	-1.033654e-01	-1.033654e-01
59.237972	1.465440	dec_nonsocial_accept_high	1.465440	32.000000	n/a	8	-1.250000e-01	-1.250000e-01
66.070890	2.116670	dec_social_choice	2.116670	16.000000	n/a	0	0	-2.311198e-01
66.070890	2.116670	dec_choice	2.116670	16.000000	n/a	0	0	-2.330729e-01
66.070890	2.116670	dec_social_reject	2.116670	16.000000	n/a	0	0	3.804348e-02
66.070890	2.116670	dec_reject	2.116670	16.000000	n/a	0	0	3.385417e-02
66.070890	2.116670	dec_social_reject_low	2.116670	16.000000	n/a	2	-1.080729e-01	-2.330729e-01
73.720955	1.316033	dec_nonsocial_choice	1.316033	32.000000	n/a	8	1.888021e-02	1.888021e-02
73.720955	1.316033	dec_choice	1.316033	32.000000	n/a	8	2.083333e-02	2.083333e-02
73.720955	1.316033	dec_nonsocial_accept	1.316033	32.000000	n/a	8	-1.137500e-01	-1.137500e-01
73.720955	1.316033	dec_accept	1.316033	32.000000	n/a	8	-1.033654e-01	-1.033654e-01
73.720955	1.316033	dec_nonsocial_high	1.316033	32.000000	n/a	8	2.083333e-02	2.083333e-02
73.720955	1.316033	dec_nonsocial_accept_high	1.316033	32.000000	n/a	8	-1.033654e-01	-1.033654e-01
80.554050	1.766335	dec_social_choice	1.766335	16.000000	n/a	0	0	-2.311198e-01
80.554050	1.766335	dec_choice	1.766335	16.000000	n/a	0	0	-2.330729e-01
80.554050	1.766335	dec_social_reject	1.766335	16.000000	n/a	0	0	3.804348e-02
80.554050	1.766335	dec_reject	1.766335	16.000000	n/a	0	0	3.385417e-02
80.554050	1.766335	dec_social_low	1.766335	16.000000	n/a	0	-2.330729e-01	-2.330729e-01
80.554050	1.766335	dec_social_reject_low	1.766335	16.000000	n/a	2	-1.080729e-01	-2.330729e-01
88.203865	0.933152	dec_social_choice	0.933152	32.000000	n/a	16	2.688802e-01	2.688802e-01
88.203865	0.933152	dec_choice	0.933152	32.000000	n/a	16	2.669271e-01	2.669271e-01
88.203865	0.933152	dec_social_accept	0.933152	32.000000	n/a	16	1.362500e-01	1.362500e-01
88.203865	0.933152	dec_accept	0.933152	32.000000	n/a	16	1.250000e-01	1.250000e-01
88.203865	0.933152	dec_social_high	0.933152	32.000000	n/a	16	2.669271e-01	2.669271e-01
88.203865	0.933152	dec_social_accept_high	0.933152	32.000000	n/a	16	2.669271e-01	2.669271e-01
99.071030	1.199945	dec_nonsocial_choice	1.199945	32.000000	n/a	8	1.888021e-02	1.888021e-02
99.071030	1.199945	dec_choice	1.199945	32.000000	n/a	8	2.083333e-02	2.083333e-02
99.071030	1.199945	dec_nonsocial_accept	1.199945	32.000000	n/a	8	-1.137500e-01	-1.137500e-01
99.071030	1.199945	dec_accept	1.199945	32.000000	n/a	8	-1.033654e-01	-1.033654e-01
99.071030	1.199945	dec_nonsocial_accept_high	1.199945	32.000000	n/a	8	-1.250000e-01	-1.250000e-01
106.721210	0.932798	dec_nonsocial_choice	0.932798	32.000000	n/a	8	1.888021e-02	1.888021e-02
106.721210	0.932798	dec_choice	0.932798	32.000000	n/a	8	2.083333e-02	2.083333e-02
106.721210	0.932798	dec_nonsocial_accept	0.932798	32.000000	n/a	8	-1.137500e-01	-1.137500e-01
106.721210	0.932798	dec_accept	0.932798	32.000000	n/a	8	-1.033654e-01	-1.033654e-01
106.721210	0.932798	dec_nonsocial_accept_high	0.932798	32.000000	n/a	8	-1.250000e-01	-1.250000e-01
115.986620	1.333775	dec_social_choice	1.333775	32.000000	n/a	0	0	-2.311198e-01
115.986620	1.333775	dec_choice	1.333775	32.000000	n/a	0	0	-2.330729e-01
115.986620	1.333775	dec_social_reject	1.333775	32.000000	n/a	0	0	-2.445652e-02
115.986620	1.333775	dec_reject	1.333775	32.000000	n/a	0	0	-2.864583e-02
115.986620	1.333775	dec_social_reject_low	1.333775	32.000000	n/a	2	-1.705729e-01	-2.330729e-01
123.636955	1.066430	dec_social_choice	1.066430	32.000000	n/a	0	0	-2.311198e-01
123.636955	1.066430	dec_choice	1.066430	32.000000	n/a	0	0	-2.330729e-01
123.636955	1.066430	dec_social_reject	1.066430	32.000000	n/a	0	0	-2.445652e-02
123.636955	1.066430	dec_reject	1.066430	32.000000	n/a	0	0	-2.864583e-02
123.636955	1.066430	dec_social_low	1.066430	32.000000	n/a	0	-2.330729e-01	-2.330729e-01
123.636955	1.066430	dec_social_reject_low	1.066430	32.000000	n/a	2	-1.705729e-01	-2.330729e-01
130.469760	0.917113	dec_social_choice	0.917113	32.000000	n/a	16	2.688802e-01	2.688802e-01
130.469760	0.917113	dec_choice	0.917113	32.000000	n/a	16	2.669271e-01	2.669271e-01
130.469760	0.917113	dec_social_accept	0.917113	32.000000	n/a	16	1.362500e-01	1.362500e-01
130.469760	0.917113	dec_accept	0.917113	32.000000	n/a	16	1.250000e-01	1.250000e-01
130.469760	0.917113	dec_social_high	0.917113	32.000000	n/a	16	2.669271e-01	2.669271e-01
130.469760	0.917113	dec_social_accept_high	0.917113	32.000000	n/a	16	2.669271e-01	2.669271e-01
137.304810	1.764859	dec_nonsocial_choice	1.764859	32.000000	n/a	0	0	-2.311198e-01
137.304810	1.764859	dec_choice	1.764859	32.000000	n/a	0	0	-2.291667e-01
137.304810	1.764859	dec_nonsocial_reject	1.764859	32.000000	n/a	0	0	6.793478e-03
137.304810	1.764859	dec_reject	1.764859	32.000000	n/a	0	0	1.136364e-02
137.304810	1.764859	dec_nonsocial_reject_low	1.764859	32.000000	n/a	3	2.604167e-03	-9.114583e-02
148.186810	1.350779	dec_social_choice	1.350779	16.000000	n/a	4	1.888021e-02	1.888021e-02
148.186810	1.350779	dec_choice	1.350779	16.000000	n/a	4	1.692708e-02	1.692708e-02
148.186810	1.350779	dec_social_accept	1.350779	16.000000	n/a	4	-1.137500e-01	-1.137500e-01
148.186810	1.350779	dec_accept	1.350779	16.000000	n/a	4	-1.250000e-01	-1.250000e-01
148.186810	1.350779	dec_social_high	1.350779	16.000000	n/a	4	1.692708e-02	1.692708e-02
148.186810	1.350779	dec_social_accept_high	1.350779	16.000000	n/a	4	1.692708e-02	1.692708e-02
155.837360	1.266220	dec_nonsocial_choice	1.266220	16.000000	n/a	0	0	-2.311198e-01
155.837360	1.266220	dec_choice	1.266220	16.000000	n/a	0	0	-2.291667e-01
155.837360	1.266220	dec_nonsocial_reject	1.266220	16.000000	n/a	0	0	3.804348e-02
155.837360	1.266220	dec_reject	1.266220	16.000000	n/a	0	0	4.261364e-02
155.837360	1.266220	dec_nonsocial_low	1.266220	16.000000	n/a	0	-2.291667e-01	-2.291667e-01
155.837360	1.266220	dec_nonsocial_reject_low	1.266220	16.000000	n/a	2	4.261364e-02	-8.238636e-02
162.670520	0.816178	dec_nonsocial_choice	0.816178	32.000000	n/a	16	2.688802e-01	2.688802e-01
162.670520	0.816178	dec_choice	0.816178	32.000000	n/a	16	2.708333e-01	2.708333e-01
162.670520	0.816178	dec_nonsocial_accept	0.816178	32.000000	n/a	16	1.362500e-01	1.362500e-01
162.670520	0.816178	dec_accept	0.816178	32.000000	n/a	16	1.466346e-01	1.466346e-01
162.670520	0.816178	dec_nonsocial_high	0.816178	32.000000	n/a	16	2.708333e-01	2.708333e-01
162.670520	0.816178	dec_nonsocial_accept_high	0.816178	32.000000	n/a	16	1.466346e-01	1.466346e-01
169.502790	0.767278	dec_nonsocial_choice	0.767278	16.000000	n/a	8	2.688802e-01	2.688802e-01
169.502790	0.767278	dec_choice	0.767278	16.000000	n/a	8	2.708333e-01	2.708333e-01
169.502790	0.767278	dec_nonsocial_accept	0.767278	16.000000	n/a	8	1.362500e-01	1.362500e-01
169.502790	0.767278	dec_accept	0.767278	16.000000	n/a	8	1.466346e-01	1.466346e-01
169.502790	0.767278	dec_nonsocial_high	0.767278	16.000000	n/a	8	2.708333e-01	2.708333e-01
169.502790	0.767278	dec_nonsocial_accept_high	0.767278	16.000000	n/a	8	1.466346e-01	1.466346e-01
176.336670	0.933475	dec_social_choice	0.933475	32.000000	n/a	16	2.688802e-01	2.688802e-01
176.336670	0.933475	dec_choice	0.933475	32.000000	n/a	16	2.669271e-01	2.669271e-01
176.336670	0.933475	dec_social_accept	0.933475	32.000000	n/a	16	1.362500e-01	1.362500e-01
176.336670	0.933475	dec_accept	0.933475	32.000000	n/a	16	1.250000e-01	1.250000e-01
176.336670	0.933475	dec_social_accept_high	0.933475	32.000000	n/a	16	2.669271e-01	2.669271e-01
185.587680	1.032849	dec_social_choice	1.032849	16.000000	n/a	0	0	-2.311198e-01
185.587680	1.032849	dec_choice	1.032849	16.000000	n/a	0	0	-2.330729e-01
185.587680	1.032849	dec_social_reject	1.032849	16.000000	n/a	0	0	-2.445652e-02
185.587680	1.032849	dec_reject	1.032849	16.000000	n/a	0	0	-2.864583e-02
185.587680	1.032849	dec_social_low	1.032849	16.000000	n/a	0	-2.330729e-01	-2.330729e-01
185.587680	1.032849	dec_social_reject_low	1.032849	16.000000	n/a	1	-1.705729e-01	-2.330729e-01
192.419540	1.117009	dec_social_choice	1.117009	32.000000	n/a	0	0	-2.311198e-01
192.419540	1.117009	dec_choice	1.117009	32.000000	n/a	0	0	-2.330729e-01
192.419540	1.117009	dec_social_reject	1.117009	32.000000	n/a	0	0	6.793478e-03
192.419540	1.117009	dec_reject	1.117009	32.000000	n/a	0	0	2.604167e-03
192.419540	1.117009	dec_social_low	1.117009	32.000000	n/a	0	-2.330729e-01	-2.330729e-01
192.419540	1.117009	dec_social_reject_low	1.117009	32.000000	n/a	3	-1.393229e-01	-2.330729e-01
199.253560	1.349912	dec_nonsocial_choice	1.349912	16.000000	n/a	4	1.888021e-02	1.888021e-02
199.253560	1.349912	dec_choice	1.349912	16.000000	n/a	4	2.083333e-02	2.083333e-02
199.253560	1.349912	dec_nonsocial_accept	1.349912	16.000000	n/a	4	-1.137500e-01	-1.137500e-01
199.253560	1.349912	dec_accept	1.349912	16.000000	n/a	4	-1.033654e-01	-1.033654e-01
199.253560	1.349912	dec_nonsocial_accept_high	1.349912	16.000000	n/a	4	-1.250000e-01	-1.250000e-01
206.086560	0.750764	dec_nonsocial_choice	0.750764	32.000000	n/a	16	2.688802e-01	2.688802e-01
206.086560	0.750764	dec_choice	0.750764	32.000000	n/a	16	2.708333e-01	2.708333e-01
206.086560	0.750764	dec_nonsocial_accept	0.750764	32.000000	n/a	16	1.362500e-01	1.362500e-01
206.086560	0.750764	dec_accept	0.750764	32.000000	n/a	16	1.466346e-01	1.466346e-01
206.086560	0.750764	dec_nonsocial_high	0.750764	32.000000	n/a	16	2.708333e-01	2.708333e-01
206.086560	0.750764	dec_nonsocial_accept_high	0.750764	32.000000	n/a	16	1.466346e-01	1.466346e-01
212.920640	1.016520	dec_social_choice	1.016520	16.000000	n/a	8	2.688802e-01	2.688802e-01
212.920640	1.016520	dec_choice	1.016520	16.000000	n/a	8	2.669271e-01	2.669271e-01
212.920640	1.016520	dec_social_accept	1.016520	16.000000	n/a	8	1.362500e-01	1.362500e-01
212.920640	1.016520	dec_accept	1.016520	16.000000	n/a	8	1.250000e-01	1.250000e-01
212.920640	1.016520	dec_social_high	1.016520	16.000000	n/a	8	2.669271e-01	2.669271e-01
212.920640	1.016520	dec_social_accept_high	1.016520	16.000000	n/a	8	2.669271e-01	2.669271e-01
219.754620	0.915365	dec_social_choice	0.915365	32.000000	n/a	8	1.888021e-02	1.888021e-02
219.754620	0.915365	dec_choice	0.915365	32.000000	n/a	8	1.692708e-02	1.692708e-02
219.754620	0.915365	dec_social_accept	0.915365	32.000000	n/a	8	-1.137500e-01	-1.137500e-01
219.754620	0.915365	dec_accept	0.915365	32.000000	n/a	8	-1.250000e-01	-1.250000e-01
219.754620	0.915365	dec_social_high	0.915365	32.000000	n/a	8	1.692708e-02	1.692708e-02
219.754620	0.915365	dec_social_accept_high	0.915365	32.000000	n/a	8	1.692708e-02	1.692708e-02
229.021210	0.965170	dec_nonsocial_choice	0.965170	32.000000	n/a	0	0	-2.311198e-01
229.021210	0.965170	dec_choice	0.965170	32.000000	n/a	0	0	-2.291667e-01
229.021210	0.965170	dec_nonsocial_reject	0.965170	32.000000	n/a	0	0	6.793478e-03
229.021210	0.965170	dec_reject	0.965170	32.000000	n/a	0	0	1.136364e-02
229.021210	0.965170	dec_nonsocial_low	0.965170	32.000000	n/a	0	-2.291667e-01	-2.291667e-01
229.021210	0.965170	dec_nonsocial_reject_low	0.965170	32.000000	n/a	3	1.136364e-02	-8.238636e-02
235.853580	0.883019	dec_social_choice	0.883019	16.000000	n/a	0	0	-2.311198e-01
235.853580	0.883019	dec_choice	0.883019	16.000000	n/a	0	0	-2.330729e-01
235.853580	0.883019	dec_social_reject	0.883019	16.000000	n/a	0	0	3.804348e-02
235.853580	0.883019	dec_reject	0.883019	16.000000	n/a	0	0	3.385417e-02
235.853580	0.883019	dec_social_low	0.883019	16.000000	n/a	0	-2.330729e-01	-2.330729e-01
235.853580	0.883019	dec_social_reject_low	0.883019	16.000000	n/a	2	-1.080729e-01	-2.330729e-01
243.503710	0.966314	dec_nonsocial_choice	0.966314	32.000000	n/a	0	0	-2.311198e-01
243.503710	0.966314	dec_choice	0.966314	32.000000	n/a	0	0	-2.291667e-01
243.503710	0.966314	dec_nonsocial_reject	0.966314	32.000000	n/a	0	0	-2.445652e-02
243.503710	0.966314	dec_reject	0.966314	32.000000	n/a	0	0	-1.988636e-02
243.503710	0.966314	dec_nonsocial_low	0.966314	32.000000	n/a	0	-2.291667e-01	-2.291667e-01
243.503710	0.966314	dec_nonsocial_reject_low	0.966314	32.000000	n/a	2	-1.988636e-02	-8.238636e-02
250.336550	1.166361	dec_nonsocial_choice	1.166361	16.000000	n/a	4	1.888021e-02	1.888021e-02
250.336550	1.166361	dec_choice	1.166361	16.000000	n/a	4	2.083333e-02	2.083333e-02
250.336550	1.166361	dec_nonsocial_accept	1.166361	16.000000	n/a	4	-1.137500e-01	-1.137500e-01
250.336550	1.166361	dec_accept	1.166361	16.000000	n/a	4	-1.033654e-01	-1.033654e-01
250.336550	1.166361	dec_nonsocial_accept_high	1.166361	16.000000	n/a	4	-1.250000e-01	-1.250000e-01
259.587600	0.865732	dec_social_choice	0.865732	32.000000	n/a	8	1.888021e-02	1.888021e-02
259.587600	0.865732	dec_choice	0.865732	32.000000	n/a	8	1.692708e-02	1.692708e-02
259.587600	0.865732	dec_social_accept	0.865732	32.000000	n/a	8	-1.137500e-01	-1.137500e-01
259.587600	0.865732	dec_accept	0.865732	32.000000	n/a	8	-1.250000e-01	-1.250000e-01
259.587600	0.865732	dec_social_accept_high	0.865732	32.000000	n/a	8	1.692708e-02	1.692708e-02
266.419460	0.783527	dec_nonsocial_choice	0.783527	16.000000	n/a	8	2.688802e-01	2.688802e-01
266.419460	0.783527	dec_choice	0.783527	16.000000	n/a	8	2.708333e-01	2.708333e-01
266.419460	0.783527	dec_nonsocial_accept	0.783527	16.000000	n/a	8	1.362500e-01	1.362500e-01
266.419460	0.783527	dec_accept	0.783527	16.000000	n/a	8	1.466346e-01	1.466346e-01
266.419460	0.783527	dec_nonsocial_high	0.783527	16.000000	n/a	8	2.708333e-01	2.708333e-01
266.419460	0.783527	dec_nonsocial_accept_high	0.783527	16.000000	n/a	8	1.466346e-01	1.466346e-01
277.286560	1.016644	dec_social_choice	1.016644	16.000000	n/a	0	0	-2.311198e-01
277.286560	1.016644	dec_choice	1.016644	16.000000	n/a	0	0	-2.330729e-01
277.286560	1.016644	dec_social_reject	1.016644	16.000000	n/a	0	0	-2.445652e-02
277.286560	1.016644	dec_reject	1.016644	16.000000	n/a	0	0	-2.864583e-02
277.286560	1.016644	dec_social_reject_low	1.016644	16.000000	n/a	1	-1.705729e-01	-2.330729e-01
284.119660	1.083798	dec_social_choice	1.083798	16.000000	n/a	0	0	-2.311198e-01
284.119660	1.083798	dec_choice	1.083798	16.000000	n/a	0	0	-2.330729e-01
284.119660	1.083798	dec_social_reject	1.083798	16.000000	n/a	0	0	3.804348e-02
284.119660	1.083798	dec_reject	1.083798	16.000000	n/a	0	0	3.385417e-02
284.119660	1.083798	dec_social_reject_low	1.083798	16.000000	n/a	2	-1.080729e-01	-2.330729e-01
293.386400	0.833626	dec_nonsocial_choice	0.833626	32.000000	n/a	0	0	-2.311198e-01
293.386400	0.833626	dec_choice	0.833626	32.000000	n/a	0	0	-2.291667e-01
293.386400	0.833626	dec_nonsocial_reject	0.833626	32.000000	n/a	0	0	-2.445652e-02
293.386400	0.833626	dec_reject	0.833626	32.000000	n/a	0	0	-1.988636e-02
293.386400	0.833626	dec_nonsocial_reject_low	0.833626	32.000000	n/a	2	-2.864583e-02	-9.114583e-02
300.220500	0.900066	dec_nonsocial_choice	0.900066	32.000000	n/a	0	0	-2.311198e-01
300.220500	0.900066	dec_choice	0.900066	32.000000	n/a	0	0	-2.291667e-01
300.220500	0.900066	dec_nonsocial_reject	0.900066	32.000000	n/a	0	0	-2.445652e-02
300.220500	0.900066	dec_reject	0.900066	32.000000	n/a	0	0	-1.988636e-02
300.220500	0.900066	dec_nonsocial_reject_low	0.900066	32.000000	n/a	2	-2.864583e-02	-9.114583e-02
307.053530	0.983038	dec_nonsocial_choice	0.983038	32.000000	n/a	0	0	-2.311198e-01
307.053530	0.983038	dec_choice	0.983038	32.000000	n/a	0	0	-2.291667e-01
307.053530	0.983038	dec_nonsocial_reject	0.983038	32.000000	n/a	0	0	-2.445652e-02
307.053530	0.983038	dec_reject	0.983038	32.000000	n/a	0	0	-1.988636e-02
307.053530	0.983038	dec_nonsocial_low	0.983038	32.000000	n/a	0	-2.291667e-01	-2.291667e-01
307.053530	0.983038	dec_nonsocial_reject_low	0.983038	32.000000	n/a	2	-1.988636e-02	-8.238636e-02
314.703500	0.899783	dec_social_choice	0.899783	16.000000	n/a	8	2.688802e-01	2.688802e-01
314.703500	0.899783	dec_choice	0.899783	16.000000	n/a	8	2.669271e-01	2.669271e-01
314.703500	0.899783	dec_social_accept	0.899783	16.000000	n/a	8	1.362500e-01	1.362500e-01
314.703500	0.899783	dec_accept	0.899783	16.000000	n/a	8	1.250000e-01	1.250000e-01
314.703500	0.899783	dec_social_high	0.899783	16.000000	n/a	8	2.669271e-01	2.669271e-01
314.703500	0.899783	dec_social_accept_high	0.899783	16.000000	n/a	8	2.669271e-01	2.669271e-01
322.354370	0.814814	dec_social_choice	0.814814	32.000000	n/a	16	2.688802e-01	2.688802e-01
322.354370	0.814814	dec_choice	0.814814	32.000000	n/a	16	2.669271e-01	2.669271e-01
322.354370	0.814814	dec_social_accept	0.814814	32.000000	n/a	16	1.362500e-01	1.362500e-01
322.354370	0.814814	dec_accept	0.814814	32.000000	n/a	16	1.250000e-01	1.250000e-01
322.354370	0.814814	dec_social_accept_high	0.814814	32.000000	n/a	16	2.669271e-01	2.669271e-01
331.619840	1.133051	dec_social_choice	1.133051	32.000000	n/a	0	0	-2.311198e-01
331.619840	1.133051	dec_choice	1.133051	32.000000	n/a	0	0	-2.330729e-01
331.619840	1.133051	dec_social_reject	1.133051	32.000000	n/a	0	0	-2.445652e-02
331.619840	1.133051	dec_reject	1.133051	32.000000	n/a	0	0	-2.864583e-02
331.619840	1.133051	dec_social_reject_low	1.133051	32.000000	n/a	2	-1.705729e-01	-2.330729e-01
344.102300	0.734099	dec_nonsocial_choice	0.734099	16.000000	n/a	0	0	-2.311198e-01
344.102300	0.734099	dec_choice	0.734099	16.000000	n/a	0	0	-2.291667e-01
344.102300	0.734099	dec_nonsocial_reject	0.734099	16.000000	n/a	0	0	-2.445652e-02
344.102300	0.734099	dec_reject	0.734099	16.000000	n/a	0	0	-1.988636e-02
344.102300	0.734099	dec_nonsocial_reject_low	0.734099	16.000000	n/a	1	-2.864583e-02	-9.114583e-02
351.753420	0.999609	dec_social_choice	0.999609	32.000000	n/a	8	1.888021e-02	1.888021e-02
351.753420	0.999609	dec_choice	0.999609	32.000000	n/a	8	1.692708e-02	1.692708e-02
351.753420	0.999609	dec_social_accept	0.999609	32.000000	n/a	8	-1.137500e-01	-1.137500e-01
351.753420	0.999609	dec_accept	0.999609	32.000000	n/a	8	-1.250000e-01	-1.250000e-01
351.753420	0.999609	dec_social_accept_high	0.999609	32.000000	n/a	8	1.692708e-02	1.692708e-02
359.403140	1.067144	dec_nonsocial_choice	1.067144	32.000000	n/a	0	0	-2.311198e-01
359.403140	1.067144	dec_choice	1.067144	32.000000	n/a	0	0	-2.291667e-01
359.403140	1.067144	dec_nonsocial_reject	1.067144	32.000000	n/a	0	0	6.793478e-03
359.403140	1.067144	dec_reject	1.067144	32.000000	n/a	0	0	1.136364e-02
359.403140	1.067144	dec_nonsocial_low	1.067144	32.000000	n/a	0	-2.291667e-01	-2.291667e-01
359.403140	1.067144	dec_nonsocial_reject_low	1.067144	32.000000	n/a	3	1.136364e-02	-8.238636e-02
366.237400	1.549045	dec_social_choice	1.549045	16.000000	n/a	4	1.888021e-02	1.888021e-02
366.237400	1.549045	dec_choice	1.549045	16.000000	n/a	4	1.692708e-02	1.692708e-02
366.237400	1.549045	dec_social_accept	1.549045	16.000000	n/a	4	-1.137500e-01	-1.137500e-01
366.237400	1.549045	dec_accept	1.549045	16.000000	n/a	4	-1.250000e-01	-1.250000e-01
366.237400	1.549045	dec_social_high	1.549045	16.000000	n/a	4	1.692708e-02	1.692708e-02
366.237400	1.549045	dec_social_accept_high	1.549045	16.000000	n/a	4	1.692708e-02	1.692708e-02
373.069180	0.883599	dec_nonsocial_choice	0.883599	16.000000	n/a	8	2.688802e-01	2.688802e-01
373.069180	0.883599	dec_choice	0.883599	16.000000	n/a	8	2.708333e-01	2.708333e-01
373.069180	0.883599	dec_nonsocial_accept	0.883599	16.000000	n/a	8	1.362500e-01	1.362500e-01
373.069180	0.883599	dec_accept	0.883599	16.000000	n/a	8	1.466346e-01	1.466346e-01
373.069180	0.883599	dec_nonsocial_accept_high	0.883599	16.000000	n/a	8	1.250000e-01	1.250000e-01
