onset	duration	trial_type	response_time	Endowment	Endowment_pmod	Decision	Decision_pmod	Offer_pmod
4.519560	2	cue_social	n/a	16	-10	n/a	n/a	n/a
4.519560	2	cue_social_low	n/a	16	-9	n/a	n/a	n/a
13.792768	2	cue_social	n/a	16	-10	n/a	n/a	n/a
13.792768	2	cue_social_low	n/a	16	-9	n/a	n/a	n/a
23.032236	2	cue_nonsocial	n/a	32	7	n/a	n/a	n/a
23.032236	2	cue_nonsocial_high	n/a	32	6	n/a	n/a	n/a
29.865852	2	cue_nonsocial	n/a	32	7	n/a	n/a	n/a
29.865852	2	cue_nonsocial_high	n/a	32	6	n/a	n/a	n/a
36.699350	2	cue_nonsocial	n/a	32	7	n/a	n/a	n/a
36.699350	2	cue_nonsocial_high	n/a	32	6	n/a	n/a	n/a
44.350100	2	cue_nonsocial	n/a	32	7	n/a	n/a	n/a
44.350100	2	cue_nonsocial_high	n/a	32	6	n/a	n/a	n/a
51.182470	2	cue_nonsocial	n/a	16	-9	n/a	n/a	n/a
51.182470	2	cue_nonsocial_low	n/a	16	-10	n/a	n/a	n/a
58.015877	2	cue_nonsocial	n/a	32	7	n/a	n/a	n/a
58.015877	2	cue_nonsocial_high	n/a	32	6	n/a	n/a	n/a
64.848640	2	cue_nonsocial	n/a	16	-9	n/a	n/a	n/a
64.848640	2	cue_nonsocial_low	n/a	16	-10	n/a	n/a	n/a
72.493614	2	cue_social	n/a	16	-10	n/a	n/a	n/a
72.493614	2	cue_social_low	n/a	16	-9	n/a	n/a	n/a
80.189860	2	cue_social	n/a	32	6	n/a	n/a	n/a
80.189860	2	cue_social_high	n/a	32	7	n/a	n/a	n/a
87.785750	2	cue_social	n/a	16	-10	n/a	n/a	n/a
87.785750	2	cue_social_low	n/a	16	-9	n/a	n/a	n/a
95.462845	2	cue_social	n/a	32	6	n/a	n/a	n/a
95.462845	2	cue_social_high	n/a	32	7	n/a	n/a	n/a
103.086640	2	cue_social	n/a	32	6	n/a	n/a	n/a
103.086640	2	cue_social_high	n/a	32	7	n/a	n/a	n/a
112.338600	2	cue_social	n/a	32	6	n/a	n/a	n/a
112.338600	2	cue_social_high	n/a	32	7	n/a	n/a	n/a
119.291570	2	cue_social	n/a	32	6	n/a	n/a	n/a
119.291570	2	cue_social_high	n/a	32	7	n/a	n/a	n/a
126.003320	2	cue_social	n/a	32	6	n/a	n/a	n/a
126.003320	2	cue_social_high	n/a	32	7	n/a	n/a	n/a
132.832640	2	cue_nonsocial	n/a	32	7	n/a	n/a	n/a
132.832640	2	cue_nonsocial_high	n/a	32	6	n/a	n/a	n/a
139.777680	2	cue_social	n/a	32	6	n/a	n/a	n/a
139.777680	2	cue_social_high	n/a	32	7	n/a	n/a	n/a
147.315660	2	cue_nonsocial	n/a	16	-9	n/a	n/a	n/a
147.315660	2	cue_nonsocial_low	n/a	16	-10	n/a	n/a	n/a
154.169880	2	cue_social	n/a	32	6	n/a	n/a	n/a
154.169880	2	cue_social_high	n/a	32	7	n/a	n/a	n/a
163.399170	2	cue_nonsocial	n/a	32	7	n/a	n/a	n/a
163.399170	2	cue_nonsocial_high	n/a	32	6	n/a	n/a	n/a
170.232200	2	cue_nonsocial	n/a	16	-9	n/a	n/a	n/a
170.232200	2	cue_nonsocial_low	n/a	16	-10	n/a	n/a	n/a
181.216380	2	cue_social	n/a	16	-10	n/a	n/a	n/a
181.216380	2	cue_social_low	n/a	16	-9	n/a	n/a	n/a
190.364650	2	cue_nonsocial	n/a	16	-9	n/a	n/a	n/a
190.364650	2	cue_nonsocial_low	n/a	16	-10	n/a	n/a	n/a
198.015340	2	cue_nonsocial	n/a	16	-9	n/a	n/a	n/a
198.015340	2	cue_nonsocial_low	n/a	16	-10	n/a	n/a	n/a
205.755680	2	cue_social	n/a	32	6	n/a	n/a	n/a
205.755680	2	cue_social_high	n/a	32	7	n/a	n/a	n/a
213.298660	2	cue_nonsocial	n/a	16	-9	n/a	n/a	n/a
213.298660	2	cue_nonsocial_low	n/a	16	-10	n/a	n/a	n/a
222.621600	2	cue_social	n/a	32	6	n/a	n/a	n/a
222.621600	2	cue_social_high	n/a	32	7	n/a	n/a	n/a
230.315020	2	cue_social	n/a	16	-10	n/a	n/a	n/a
230.315020	2	cue_social_low	n/a	16	-9	n/a	n/a	n/a
237.058270	2	cue_social	n/a	16	-10	n/a	n/a	n/a
237.058270	2	cue_social_low	n/a	16	-9	n/a	n/a	n/a
247.925450	2	cue_social	n/a	32	6	n/a	n/a	n/a
247.925450	2	cue_social_high	n/a	32	7	n/a	n/a	n/a
254.747970	2	cue_nonsocial	n/a	16	-9	n/a	n/a	n/a
254.747970	2	cue_nonsocial_low	n/a	16	-10	n/a	n/a	n/a
261.701170	2	cue_social	n/a	16	-10	n/a	n/a	n/a
261.701170	2	cue_social_low	n/a	16	-9	n/a	n/a	n/a
268.412600	2	cue_social	n/a	16	-10	n/a	n/a	n/a
268.412600	2	cue_social_low	n/a	16	-9	n/a	n/a	n/a
275.247920	2	cue_nonsocial	n/a	32	7	n/a	n/a	n/a
275.247920	2	cue_nonsocial_high	n/a	32	6	n/a	n/a	n/a
282.081500	2	cue_nonsocial	n/a	32	7	n/a	n/a	n/a
282.081500	2	cue_nonsocial_high	n/a	32	6	n/a	n/a	n/a
289.002350	2	cue_social	n/a	32	6	n/a	n/a	n/a
289.002350	2	cue_social_high	n/a	32	7	n/a	n/a	n/a
295.838100	2	cue_social	n/a	32	6	n/a	n/a	n/a
295.838100	2	cue_social_high	n/a	32	7	n/a	n/a	n/a
302.578030	2	cue_nonsocial	n/a	32	7	n/a	n/a	n/a
302.578030	2	cue_nonsocial_high	n/a	32	6	n/a	n/a	n/a
313.447570	2	cue_nonsocial	n/a	32	7	n/a	n/a	n/a
313.447570	2	cue_nonsocial_high	n/a	32	6	n/a	n/a	n/a
320.341860	2	cue_social	n/a	32	6	n/a	n/a	n/a
320.341860	2	cue_social_high	n/a	32	7	n/a	n/a	n/a
327.115200	2	cue_nonsocial	n/a	32	7	n/a	n/a	n/a
327.115200	2	cue_nonsocial_high	n/a	32	6	n/a	n/a	n/a
334.039460	2	cue_social	n/a	32	6	n/a	n/a	n/a
334.039460	2	cue_social_high	n/a	32	7	n/a	n/a	n/a
341.598420	2	cue_nonsocial	n/a	32	7	n/a	n/a	n/a
341.598420	2	cue_nonsocial_high	n/a	32	6	n/a	n/a	n/a
350.848020	2	cue_nonsocial	n/a	16	-9	n/a	n/a	n/a
350.848020	2	cue_nonsocial_low	n/a	16	-10	n/a	n/a	n/a
357.680820	2	cue_nonsocial	n/a	16	-9	n/a	n/a	n/a
357.680820	2	cue_nonsocial_low	n/a	16	-10	n/a	n/a	n/a
365.331100	2	cue_nonsocial	n/a	16	-9	n/a	n/a	n/a
365.331100	2	cue_nonsocial_low	n/a	16	-10	n/a	n/a	n/a
6.521397	0.233345	dec_social_choice	0.233345	16.000000	n/a	0	0	-2.298177e-01
6.521397	0.233345	dec_choice	0.233345	16.000000	n/a	0	0	-2.278646e-01
6.521397	0.233345	dec_social_reject	0.233345	16.000000	n/a	0	0	3.571429e-01
6.521397	0.233345	dec_reject	0.233345	16.000000	n/a	0	0	3.710938e-01
6.521397	0.233345	dec_social_reject_low	0.233345	16.000000	n/a	8	2.721354e-01	-2.278646e-01
15.787725	1.050078	dec_social_choice	1.050078	16.000000	n/a	0	0	-2.298177e-01
15.787725	1.050078	dec_choice	1.050078	16.000000	n/a	0	0	-2.278646e-01
15.787725	1.050078	dec_social_reject	1.050078	16.000000	n/a	0	0	-1.785714e-02
15.787725	1.050078	dec_reject	1.050078	16.000000	n/a	0	0	-3.906250e-03
15.787725	1.050078	dec_social_reject_low	1.050078	16.000000	n/a	2	-1.028646e-01	-2.278646e-01
25.037712	0.533635	dec_nonsocial_choice	0.533635	32.000000	n/a	0	0	-2.298177e-01
25.037712	0.533635	dec_choice	0.533635	32.000000	n/a	0	0	-2.317708e-01
25.037712	0.533635	dec_nonsocial_reject	0.533635	32.000000	n/a	0	0	3.571429e-01
25.037712	0.533635	dec_reject	0.533635	32.000000	n/a	0	0	3.485577e-01
25.037712	0.533635	dec_nonsocial_low	0.533635	32.000000	n/a	0	-2.317708e-01	-2.317708e-01
25.037712	0.533635	dec_nonsocial_reject_low	0.533635	32.000000	n/a	16	3.485577e-01	-1.514423e-01
31.870863	1.183664	dec_nonsocial_choice	1.183664	32.000000	n/a	0	0	-2.298177e-01
31.870863	1.183664	dec_choice	1.183664	32.000000	n/a	0	0	-2.317708e-01
31.870863	1.183664	dec_nonsocial_reject	1.183664	32.000000	n/a	0	0	-8.035714e-02
31.870863	1.183664	dec_reject	1.183664	32.000000	n/a	0	0	-8.894231e-02
31.870863	1.183664	dec_nonsocial_reject_low	1.183664	32.000000	n/a	2	-6.640625e-02	-1.289062e-01
38.704750	1.016161	dec_nonsocial_choice	1.016161	32.000000	n/a	8	2.018229e-02	2.018229e-02
38.704750	1.016161	dec_choice	1.016161	32.000000	n/a	8	1.822917e-02	1.822917e-02
38.704750	1.016161	dec_nonsocial_accept	1.016161	32.000000	n/a	8	-4.745370e-02	-4.745370e-02
38.704750	1.016161	dec_accept	1.016161	32.000000	n/a	8	-7.670455e-02	-7.670455e-02
38.704750	1.016161	dec_nonsocial_accept_high	1.016161	32.000000	n/a	8	-2.734375e-02	-2.734375e-02
46.354960	0.982391	dec_nonsocial_choice	0.982391	32.000000	n/a	0	0	-2.298177e-01
46.354960	0.982391	dec_choice	0.982391	32.000000	n/a	0	0	-2.317708e-01
46.354960	0.982391	dec_nonsocial_reject	0.982391	32.000000	n/a	0	0	-4.910714e-02
46.354960	0.982391	dec_reject	0.982391	32.000000	n/a	0	0	-5.769231e-02
46.354960	0.982391	dec_nonsocial_low	0.982391	32.000000	n/a	0	-2.317708e-01	-2.317708e-01
46.354960	0.982391	dec_nonsocial_reject_low	0.982391	32.000000	n/a	3	-5.769231e-02	-1.514423e-01
53.187862	1.083242	dec_nonsocial_choice	1.083242	16.000000	n/a	4	2.018229e-02	2.018229e-02
53.187862	1.083242	dec_choice	1.083242	16.000000	n/a	4	1.822917e-02	1.822917e-02
53.187862	1.083242	dec_nonsocial_accept	1.083242	16.000000	n/a	4	-4.745370e-02	-4.745370e-02
53.187862	1.083242	dec_accept	1.083242	16.000000	n/a	4	-7.670455e-02	-7.670455e-02
53.187862	1.083242	dec_nonsocial_accept_high	1.083242	16.000000	n/a	4	-2.734375e-02	-2.734375e-02
60.020782	0.616462	dec_nonsocial_choice	0.616462	32.000000	n/a	16	2.701823e-01	2.701823e-01
60.020782	0.616462	dec_choice	0.616462	32.000000	n/a	16	2.682292e-01	2.682292e-01
60.020782	0.616462	dec_nonsocial_accept	0.616462	32.000000	n/a	16	2.025463e-01	2.025463e-01
60.020782	0.616462	dec_accept	0.616462	32.000000	n/a	16	1.732955e-01	1.732955e-01
60.020782	0.616462	dec_nonsocial_accept_high	0.616462	32.000000	n/a	16	2.226562e-01	2.226562e-01
66.854294	1.650257	dec_nonsocial_choice	1.650257	16.000000	n/a	0	0	-2.298177e-01
66.854294	1.650257	dec_choice	1.650257	16.000000	n/a	0	0	-2.317708e-01
66.854294	1.650257	dec_nonsocial_reject	1.650257	16.000000	n/a	0	0	-1.785714e-02
66.854294	1.650257	dec_reject	1.650257	16.000000	n/a	0	0	-2.644231e-02
66.854294	1.650257	dec_nonsocial_low	1.650257	16.000000	n/a	0	-2.317708e-01	-2.317708e-01
66.854294	1.650257	dec_nonsocial_reject_low	1.650257	16.000000	n/a	2	-2.644231e-02	-1.514423e-01
74.503685	0.716828	dec_social_choice	0.716828	16.000000	n/a	8	2.701823e-01	2.701823e-01
74.503685	0.716828	dec_choice	0.716828	16.000000	n/a	8	2.721354e-01	2.721354e-01
74.503685	0.716828	dec_social_accept	0.716828	16.000000	n/a	8	2.025463e-01	2.025463e-01
74.503685	0.716828	dec_accept	0.716828	16.000000	n/a	8	2.226562e-01	2.226562e-01
74.503685	0.716828	dec_social_accept_high	0.716828	16.000000	n/a	8	2.721354e-01	2.721354e-01
82.154175	1.549978	dec_social_choice	1.549978	32.000000	n/a	0	0	-2.298177e-01
82.154175	1.549978	dec_choice	1.549978	32.000000	n/a	0	0	-2.278646e-01
82.154175	1.549978	dec_social_reject	1.549978	32.000000	n/a	0	0	-8.035714e-02
82.154175	1.549978	dec_reject	1.549978	32.000000	n/a	0	0	-6.640625e-02
82.154175	1.549978	dec_social_reject_low	1.549978	32.000000	n/a	2	-1.653646e-01	-2.278646e-01
89.788780	0.698967	dec_social_choice	0.698967	16.000000	n/a	8	2.701823e-01	2.701823e-01
89.788780	0.698967	dec_choice	0.698967	16.000000	n/a	8	2.721354e-01	2.721354e-01
89.788780	0.698967	dec_social_accept	0.698967	16.000000	n/a	8	2.025463e-01	2.025463e-01
89.788780	0.698967	dec_accept	0.698967	16.000000	n/a	8	2.226562e-01	2.226562e-01
89.788780	0.698967	dec_social_high	0.698967	16.000000	n/a	8	2.721354e-01	2.721354e-01
89.788780	0.698967	dec_social_accept_high	0.698967	16.000000	n/a	8	2.721354e-01	2.721354e-01
97.436980	1.117233	dec_social_choice	1.117233	32.000000	n/a	3	-1.360677e-01	-1.360677e-01
97.436980	1.117233	dec_choice	1.117233	32.000000	n/a	3	-1.341146e-01	-1.341146e-01
97.436980	1.117233	dec_social_accept	1.117233	32.000000	n/a	3	-2.037037e-01	-2.037037e-01
97.436980	1.117233	dec_accept	1.117233	32.000000	n/a	3	-1.835938e-01	-1.835938e-01
97.436980	1.117233	dec_social_low	1.117233	32.000000	n/a	3	-1.341146e-01	-1.341146e-01
97.436980	1.117233	dec_social_accept_low	1.117233	32.000000	n/a	3	-1.341146e-01	-1.341146e-01
105.088660	1.632283	dec_social_choice	1.632283	32.000000	n/a	0	0	-2.298177e-01
105.088660	1.632283	dec_choice	1.632283	32.000000	n/a	0	0	-2.278646e-01
105.088660	1.632283	dec_social_reject	1.632283	32.000000	n/a	0	0	-4.910714e-02
105.088660	1.632283	dec_reject	1.632283	32.000000	n/a	0	0	-3.515625e-02
105.088660	1.632283	dec_social_low	1.632283	32.000000	n/a	0	-2.278646e-01	-2.278646e-01
105.088660	1.632283	dec_social_reject_low	1.632283	32.000000	n/a	3	-1.341146e-01	-2.278646e-01
114.337630	2.116426	dec_social_choice	2.116426	32.000000	n/a	2	-1.673177e-01	-1.673177e-01
114.337630	2.116426	dec_choice	2.116426	32.000000	n/a	2	-1.653646e-01	-1.653646e-01
114.337630	2.116426	dec_social_accept	2.116426	32.000000	n/a	2	-2.349537e-01	-2.349537e-01
114.337630	2.116426	dec_accept	2.116426	32.000000	n/a	2	-2.148438e-01	-2.148438e-01
114.337630	2.116426	dec_social_accept_low	2.116426	32.000000	n/a	2	-1.653646e-01	-1.653646e-01
121.170670	1.817017	dec_social_choice	1.817017	32.000000	n/a	3	-1.360677e-01	-1.360677e-01
121.170670	1.817017	dec_choice	1.817017	32.000000	n/a	3	-1.341146e-01	-1.341146e-01
121.170670	1.817017	dec_social_accept	1.817017	32.000000	n/a	3	-2.037037e-01	-2.037037e-01
121.170670	1.817017	dec_accept	1.817017	32.000000	n/a	3	-1.835938e-01	-1.835938e-01
121.170670	1.817017	dec_social_accept_low	1.817017	32.000000	n/a	3	-1.341146e-01	-1.341146e-01
128.004380	0.965793	dec_social_choice	0.965793	32.000000	n/a	16	2.701823e-01	2.701823e-01
128.004380	0.965793	dec_choice	0.965793	32.000000	n/a	16	2.721354e-01	2.721354e-01
128.004380	0.965793	dec_social_accept	0.965793	32.000000	n/a	16	2.025463e-01	2.025463e-01
128.004380	0.965793	dec_accept	0.965793	32.000000	n/a	16	2.226562e-01	2.226562e-01
128.004380	0.965793	dec_social_accept_high	0.965793	32.000000	n/a	16	2.721354e-01	2.721354e-01
134.836670	1.000598	dec_nonsocial_choice	1.000598	32.000000	n/a	8	2.018229e-02	2.018229e-02
134.836670	1.000598	dec_choice	1.000598	32.000000	n/a	8	1.822917e-02	1.822917e-02
134.836670	1.000598	dec_nonsocial_accept	1.000598	32.000000	n/a	8	-4.745370e-02	-4.745370e-02
134.836670	1.000598	dec_accept	1.000598	32.000000	n/a	8	-7.670455e-02	-7.670455e-02
134.836670	1.000598	dec_nonsocial_accept_high	1.000598	32.000000	n/a	8	-2.734375e-02	-2.734375e-02
141.671680	0.865240	dec_social_choice	0.865240	32.000000	n/a	8	2.018229e-02	2.018229e-02
141.671680	0.865240	dec_choice	0.865240	32.000000	n/a	8	2.213542e-02	2.213542e-02
141.671680	0.865240	dec_social_accept	0.865240	32.000000	n/a	8	-4.745370e-02	-4.745370e-02
141.671680	0.865240	dec_accept	0.865240	32.000000	n/a	8	-2.734375e-02	-2.734375e-02
141.671680	0.865240	dec_social_accept_high	0.865240	32.000000	n/a	8	2.213542e-02	2.213542e-02
149.321490	0.799176	dec_nonsocial_choice	0.799176	16.000000	n/a	0	0	-2.298177e-01
149.321490	0.799176	dec_choice	0.799176	16.000000	n/a	0	0	-2.317708e-01
149.321490	0.799176	dec_nonsocial_reject	0.799176	16.000000	n/a	0	0	-1.785714e-02
149.321490	0.799176	dec_reject	0.799176	16.000000	n/a	0	0	-2.644231e-02
149.321490	0.799176	dec_nonsocial_reject_low	0.799176	16.000000	n/a	2	-3.906250e-03	-1.289062e-01
156.154280	1.233178	dec_social_choice	1.233178	32.000000	n/a	0	0	-2.298177e-01
156.154280	1.233178	dec_choice	1.233178	32.000000	n/a	0	0	-2.278646e-01
156.154280	1.233178	dec_social_reject	1.233178	32.000000	n/a	0	0	-8.035714e-02
156.154280	1.233178	dec_reject	1.233178	32.000000	n/a	0	0	-6.640625e-02
156.154280	1.233178	dec_social_low	1.233178	32.000000	n/a	0	-2.278646e-01	-2.278646e-01
156.154280	1.233178	dec_social_reject_low	1.233178	32.000000	n/a	2	-1.653646e-01	-2.278646e-01
165.404430	0.599635	dec_nonsocial_choice	0.599635	32.000000	n/a	8	2.018229e-02	2.018229e-02
165.404430	0.599635	dec_choice	0.599635	32.000000	n/a	8	1.822917e-02	1.822917e-02
165.404430	0.599635	dec_nonsocial_accept	0.599635	32.000000	n/a	8	-4.745370e-02	-4.745370e-02
165.404430	0.599635	dec_accept	0.599635	32.000000	n/a	8	-7.670455e-02	-7.670455e-02
165.404430	0.599635	dec_nonsocial_accept_high	0.599635	32.000000	n/a	8	-2.734375e-02	-2.734375e-02
172.237560	0.615996	dec_nonsocial_choice	0.615996	16.000000	n/a	0	0	-2.298177e-01
172.237560	0.615996	dec_choice	0.615996	16.000000	n/a	0	0	-2.317708e-01
172.237560	0.615996	dec_nonsocial_reject	0.615996	16.000000	n/a	0	0	3.571429e-01
172.237560	0.615996	dec_reject	0.615996	16.000000	n/a	0	0	3.485577e-01
172.237560	0.615996	dec_nonsocial_reject_low	0.615996	16.000000	n/a	8	3.710938e-01	-1.289062e-01
183.103550	2.033936	dec_social_choice	2.033936	16.000000	n/a	4	2.018229e-02	2.018229e-02
183.103550	2.033936	dec_choice	2.033936	16.000000	n/a	4	2.213542e-02	2.213542e-02
183.103550	2.033936	dec_social_accept	2.033936	16.000000	n/a	4	-4.745370e-02	-4.745370e-02
183.103550	2.033936	dec_accept	2.033936	16.000000	n/a	4	-2.734375e-02	-2.734375e-02
183.103550	2.033936	dec_social_high	2.033936	16.000000	n/a	4	2.213542e-02	2.213542e-02
183.103550	2.033936	dec_social_accept_high	2.033936	16.000000	n/a	4	2.213542e-02	2.213542e-02
192.370470	0.799622	dec_nonsocial_choice	0.799622	16.000000	n/a	0	0	-2.298177e-01
192.370470	0.799622	dec_choice	0.799622	16.000000	n/a	0	0	-2.317708e-01
192.370470	0.799622	dec_nonsocial_reject	0.799622	16.000000	n/a	0	0	-8.035714e-02
192.370470	0.799622	dec_reject	0.799622	16.000000	n/a	0	0	-8.894231e-02
192.370470	0.799622	dec_nonsocial_reject_low	0.799622	16.000000	n/a	1	-6.640625e-02	-1.289062e-01
200.020480	1.150121	dec_nonsocial_choice	1.150121	16.000000	n/a	0	0	-2.298177e-01
200.020480	1.150121	dec_choice	1.150121	16.000000	n/a	0	0	-2.317708e-01
200.020480	1.150121	dec_nonsocial_reject	1.150121	16.000000	n/a	0	0	-8.035714e-02
200.020480	1.150121	dec_reject	1.150121	16.000000	n/a	0	0	-8.894231e-02
200.020480	1.150121	dec_nonsocial_low	1.150121	16.000000	n/a	0	-2.317708e-01	-2.317708e-01
200.020480	1.150121	dec_nonsocial_reject_low	1.150121	16.000000	n/a	1	-8.894231e-02	-1.514423e-01
207.653490	0.633918	dec_social_choice	0.633918	32.000000	n/a	8	2.018229e-02	2.018229e-02
207.653490	0.633918	dec_choice	0.633918	32.000000	n/a	8	2.213542e-02	2.213542e-02
207.653490	0.633918	dec_social_accept	0.633918	32.000000	n/a	8	-4.745370e-02	-4.745370e-02
207.653490	0.633918	dec_accept	0.633918	32.000000	n/a	8	-2.734375e-02	-2.734375e-02
207.653490	0.633918	dec_social_accept_high	0.633918	32.000000	n/a	8	2.213542e-02	2.213542e-02
215.304750	0.881897	dec_nonsocial_choice	0.881897	16.000000	n/a	0	0	-2.298177e-01
215.304750	0.881897	dec_choice	0.881897	16.000000	n/a	0	0	-2.317708e-01
215.304750	0.881897	dec_nonsocial_reject	0.881897	16.000000	n/a	0	0	-8.035714e-02
215.304750	0.881897	dec_reject	0.881897	16.000000	n/a	0	0	-8.894231e-02
215.304750	0.881897	dec_nonsocial_low	0.881897	16.000000	n/a	0	-2.317708e-01	-2.317708e-01
215.304750	0.881897	dec_nonsocial_reject_low	0.881897	16.000000	n/a	1	-8.894231e-02	-1.514423e-01
224.571150	1.632517	dec_social_choice	1.632517	32.000000	n/a	0	0	-2.298177e-01
224.571150	1.632517	dec_choice	1.632517	32.000000	n/a	0	0	-2.278646e-01
224.571150	1.632517	dec_social_reject	1.632517	32.000000	n/a	0	0	-8.035714e-02
224.571150	1.632517	dec_reject	1.632517	32.000000	n/a	0	0	-6.640625e-02
224.571150	1.632517	dec_social_low	1.632517	32.000000	n/a	0	-2.278646e-01	-2.278646e-01
224.571150	1.632517	dec_social_reject_low	1.632517	32.000000	n/a	2	-1.653646e-01	-2.278646e-01
232.220370	1.749903	dec_social_choice	1.749903	16.000000	n/a	4	2.018229e-02	2.018229e-02
232.220370	1.749903	dec_choice	1.749903	16.000000	n/a	4	2.213542e-02	2.213542e-02
232.220370	1.749903	dec_social_accept	1.749903	16.000000	n/a	4	-4.745370e-02	-4.745370e-02
232.220370	1.749903	dec_accept	1.749903	16.000000	n/a	4	-2.734375e-02	-2.734375e-02
232.220370	1.749903	dec_social_high	1.749903	16.000000	n/a	4	2.213542e-02	2.213542e-02
232.220370	1.749903	dec_social_accept_high	1.749903	16.000000	n/a	4	2.213542e-02	2.213542e-02
239.054570	0.799070	dec_social_choice	0.799070	16.000000	n/a	8	2.701823e-01	2.701823e-01
239.054570	0.799070	dec_choice	0.799070	16.000000	n/a	8	2.721354e-01	2.721354e-01
239.054570	0.799070	dec_social_accept	0.799070	16.000000	n/a	8	2.025463e-01	2.025463e-01
239.054570	0.799070	dec_accept	0.799070	16.000000	n/a	8	2.226562e-01	2.226562e-01
239.054570	0.799070	dec_social_high	0.799070	16.000000	n/a	8	2.721354e-01	2.721354e-01
239.054570	0.799070	dec_social_accept_high	0.799070	16.000000	n/a	8	2.721354e-01	2.721354e-01
249.921050	1.399076	dec_social_choice	1.399076	32.000000	n/a	0	0	-2.298177e-01
249.921050	1.399076	dec_choice	1.399076	32.000000	n/a	0	0	-2.278646e-01
249.921050	1.399076	dec_social_reject	1.399076	32.000000	n/a	0	0	-8.035714e-02
249.921050	1.399076	dec_reject	1.399076	32.000000	n/a	0	0	-6.640625e-02
249.921050	1.399076	dec_social_reject_low	1.399076	32.000000	n/a	2	-1.653646e-01	-2.278646e-01
256.754500	0.715748	dec_nonsocial_choice	0.715748	16.000000	n/a	8	2.701823e-01	2.701823e-01
256.754500	0.715748	dec_choice	0.715748	16.000000	n/a	8	2.682292e-01	2.682292e-01
256.754500	0.715748	dec_nonsocial_accept	0.715748	16.000000	n/a	8	2.025463e-01	2.025463e-01
256.754500	0.715748	dec_accept	0.715748	16.000000	n/a	8	1.732955e-01	1.732955e-01
256.754500	0.715748	dec_nonsocial_high	0.715748	16.000000	n/a	8	2.682292e-01	2.682292e-01
256.754500	0.715748	dec_nonsocial_accept_high	0.715748	16.000000	n/a	8	1.732955e-01	1.732955e-01
263.587100	1.016041	dec_social_choice	1.016041	16.000000	n/a	0	0	-2.298177e-01
263.587100	1.016041	dec_choice	1.016041	16.000000	n/a	0	0	-2.278646e-01
263.587100	1.016041	dec_social_reject	1.016041	16.000000	n/a	0	0	-8.035714e-02
263.587100	1.016041	dec_reject	1.016041	16.000000	n/a	0	0	-6.640625e-02
263.587100	1.016041	dec_social_low	1.016041	16.000000	n/a	0	-2.278646e-01	-2.278646e-01
263.587100	1.016041	dec_social_reject_low	1.016041	16.000000	n/a	1	-1.653646e-01	-2.278646e-01
270.420260	1.216540	dec_social_choice	1.216540	16.000000	n/a	4	2.018229e-02	2.018229e-02
270.420260	1.216540	dec_choice	1.216540	16.000000	n/a	4	2.213542e-02	2.213542e-02
270.420260	1.216540	dec_social_accept	1.216540	16.000000	n/a	4	-4.745370e-02	-4.745370e-02
270.420260	1.216540	dec_accept	1.216540	16.000000	n/a	4	-2.734375e-02	-2.734375e-02
270.420260	1.216540	dec_social_high	1.216540	16.000000	n/a	4	2.213542e-02	2.213542e-02
270.420260	1.216540	dec_social_accept_high	1.216540	16.000000	n/a	4	2.213542e-02	2.213542e-02
277.253400	0.916356	dec_nonsocial_choice	0.916356	32.000000	n/a	16	2.701823e-01	2.701823e-01
277.253400	0.916356	dec_choice	0.916356	32.000000	n/a	16	2.682292e-01	2.682292e-01
277.253400	0.916356	dec_nonsocial_accept	0.916356	32.000000	n/a	16	2.025463e-01	2.025463e-01
277.253400	0.916356	dec_accept	0.916356	32.000000	n/a	16	1.732955e-01	1.732955e-01
277.253400	0.916356	dec_nonsocial_high	0.916356	32.000000	n/a	16	2.682292e-01	2.682292e-01
277.253400	0.916356	dec_nonsocial_accept_high	0.916356	32.000000	n/a	16	1.732955e-01	1.732955e-01
284.087400	1.865597	dec_nonsocial_choice	1.865597	32.000000	n/a	3	-1.360677e-01	-1.360677e-01
284.087400	1.865597	dec_choice	1.865597	32.000000	n/a	3	-1.380208e-01	-1.380208e-01
284.087400	1.865597	dec_nonsocial_accept	1.865597	32.000000	n/a	3	-2.037037e-01	-2.037037e-01
284.087400	1.865597	dec_accept	1.865597	32.000000	n/a	3	-2.329545e-01	-2.329545e-01
284.087400	1.865597	dec_nonsocial_accept_low	1.865597	32.000000	n/a	3	-1.835938e-01	-1.835938e-01
290.920380	1.499651	dec_social_choice	1.499651	32.000000	n/a	8	2.018229e-02	2.018229e-02
290.920380	1.499651	dec_choice	1.499651	32.000000	n/a	8	2.213542e-02	2.213542e-02
290.920380	1.499651	dec_social_accept	1.499651	32.000000	n/a	8	-4.745370e-02	-4.745370e-02
290.920380	1.499651	dec_accept	1.499651	32.000000	n/a	8	-2.734375e-02	-2.734375e-02
290.920380	1.499651	dec_social_accept_high	1.499651	32.000000	n/a	8	2.213542e-02	2.213542e-02
297.753300	0.850189	dec_social_choice	0.850189	32.000000	n/a	16	2.701823e-01	2.701823e-01
297.753300	0.850189	dec_choice	0.850189	32.000000	n/a	16	2.721354e-01	2.721354e-01
297.753300	0.850189	dec_social_accept	0.850189	32.000000	n/a	16	2.025463e-01	2.025463e-01
297.753300	0.850189	dec_accept	0.850189	32.000000	n/a	16	2.226562e-01	2.226562e-01
297.753300	0.850189	dec_social_high	0.850189	32.000000	n/a	16	2.721354e-01	2.721354e-01
297.753300	0.850189	dec_social_accept_high	0.850189	32.000000	n/a	16	2.721354e-01	2.721354e-01
304.586330	1.216590	dec_nonsocial_choice	1.216590	32.000000	n/a	8	2.018229e-02	2.018229e-02
304.586330	1.216590	dec_choice	1.216590	32.000000	n/a	8	1.822917e-02	1.822917e-02
304.586330	1.216590	dec_nonsocial_accept	1.216590	32.000000	n/a	8	-4.745370e-02	-4.745370e-02
304.586330	1.216590	dec_accept	1.216590	32.000000	n/a	8	-7.670455e-02	-7.670455e-02
304.586330	1.216590	dec_nonsocial_accept_high	1.216590	32.000000	n/a	8	-2.734375e-02	-2.734375e-02
315.454200	1.399525	dec_nonsocial_choice	1.399525	32.000000	n/a	0	0	-2.298177e-01
315.454200	1.399525	dec_choice	1.399525	32.000000	n/a	0	0	-2.317708e-01
315.454200	1.399525	dec_nonsocial_reject	1.399525	32.000000	n/a	0	0	-8.035714e-02
315.454200	1.399525	dec_reject	1.399525	32.000000	n/a	0	0	-8.894231e-02
315.454200	1.399525	dec_nonsocial_low	1.399525	32.000000	n/a	0	-2.317708e-01	-2.317708e-01
315.454200	1.399525	dec_nonsocial_reject_low	1.399525	32.000000	n/a	2	-8.894231e-02	-1.514423e-01
322.287230	1.932864	dec_social_choice	1.932864	32.000000	n/a	3	-1.360677e-01	-1.360677e-01
322.287230	1.932864	dec_choice	1.932864	32.000000	n/a	3	-1.341146e-01	-1.341146e-01
322.287230	1.932864	dec_social_accept	1.932864	32.000000	n/a	3	-2.037037e-01	-2.037037e-01
322.287230	1.932864	dec_accept	1.932864	32.000000	n/a	3	-1.835938e-01	-1.835938e-01
322.287230	1.932864	dec_social_accept_low	1.932864	32.000000	n/a	3	-1.341146e-01	-1.341146e-01
329.120400	0.715787	dec_nonsocial_choice	0.715787	32.000000	n/a	16	2.701823e-01	2.701823e-01
329.120400	0.715787	dec_choice	0.715787	32.000000	n/a	16	2.682292e-01	2.682292e-01
329.120400	0.715787	dec_nonsocial_accept	0.715787	32.000000	n/a	16	2.025463e-01	2.025463e-01
329.120400	0.715787	dec_accept	0.715787	32.000000	n/a	16	1.732955e-01	1.732955e-01
329.120400	0.715787	dec_nonsocial_high	0.715787	32.000000	n/a	16	2.682292e-01	2.682292e-01
329.120400	0.715787	dec_nonsocial_accept_high	0.715787	32.000000	n/a	16	1.732955e-01	1.732955e-01
335.953400	0.883304	dec_social_choice	0.883304	32.000000	n/a	3	-1.360677e-01	-1.360677e-01
335.953400	0.883304	dec_choice	0.883304	32.000000	n/a	3	-1.341146e-01	-1.341146e-01
335.953400	0.883304	dec_social_accept	0.883304	32.000000	n/a	3	-2.037037e-01	-2.037037e-01
335.953400	0.883304	dec_accept	0.883304	32.000000	n/a	3	-1.835938e-01	-1.835938e-01
335.953400	0.883304	dec_social_accept_low	0.883304	32.000000	n/a	3	-1.341146e-01	-1.341146e-01
343.603270	1.233761	dec_nonsocial_choice	1.233761	32.000000	n/a	8	2.018229e-02	2.018229e-02
343.603270	1.233761	dec_choice	1.233761	32.000000	n/a	8	1.822917e-02	1.822917e-02
343.603270	1.233761	dec_nonsocial_accept	1.233761	32.000000	n/a	8	-4.745370e-02	-4.745370e-02
343.603270	1.233761	dec_accept	1.233761	32.000000	n/a	8	-7.670455e-02	-7.670455e-02
343.603270	1.233761	dec_nonsocial_high	1.233761	32.000000	n/a	8	1.822917e-02	1.822917e-02
343.603270	1.233761	dec_nonsocial_accept_high	1.233761	32.000000	n/a	8	-7.670455e-02	-7.670455e-02
352.853270	1.232926	dec_nonsocial_choice	1.232926	16.000000	n/a	0	0	-2.298177e-01
352.853270	1.232926	dec_choice	1.232926	16.000000	n/a	0	0	-2.317708e-01
352.853270	1.232926	dec_nonsocial_reject	1.232926	16.000000	n/a	0	0	-1.785714e-02
352.853270	1.232926	dec_reject	1.232926	16.000000	n/a	0	0	-2.644231e-02
352.853270	1.232926	dec_nonsocial_low	1.232926	16.000000	n/a	0	-2.317708e-01	-2.317708e-01
352.853270	1.232926	dec_nonsocial_reject_low	1.232926	16.000000	n/a	2	-2.644231e-02	-1.514423e-01
359.687300	0.932745	dec_nonsocial_choice	0.932745	16.000000	n/a	0	0	-2.298177e-01
359.687300	0.932745	dec_choice	0.932745	16.000000	n/a	0	0	-2.317708e-01
359.687300	0.932745	dec_nonsocial_reject	0.932745	16.000000	n/a	0	0	-8.035714e-02
359.687300	0.932745	dec_reject	0.932745	16.000000	n/a	0	0	-8.894231e-02
359.687300	0.932745	dec_nonsocial_reject_low	0.932745	16.000000	n/a	1	-6.640625e-02	-1.289062e-01
367.337280	1.915818	dec_nonsocial_choice	1.915818	16.000000	n/a	0	0	-2.298177e-01
367.337280	1.915818	dec_choice	1.915818	16.000000	n/a	0	0	-2.317708e-01
367.337280	1.915818	dec_nonsocial_reject	1.915818	16.000000	n/a	0	0	-1.785714e-02
367.337280	1.915818	dec_reject	1.915818	16.000000	n/a	0	0	-2.644231e-02
367.337280	1.915818	dec_nonsocial_reject_low	1.915818	16.000000	n/a	2	-3.906250e-03	-1.289062e-01
