onset	duration	trial_type	response_time	Endowment	Endowment_pmod	Decision	Decision_pmod	Offer_pmod
4.515753	2	cue_social	n/a	16	-5	n/a	n/a	n/a
4.515753	2	cue_social_low	n/a	16	-6	n/a	n/a	n/a
12.157676	2	cue_nonsocial	n/a	32	10	n/a	n/a	n/a
12.157676	2	cue_nonsocial_high	n/a	32	11	n/a	n/a	n/a
18.991634	2	cue_nonsocial	n/a	16	-6	n/a	n/a	n/a
18.991634	2	cue_nonsocial_low	n/a	16	-5	n/a	n/a	n/a
28.258207	2	cue_nonsocial	n/a	16	-6	n/a	n/a	n/a
28.258207	2	cue_nonsocial_low	n/a	16	-5	n/a	n/a	n/a
35.122017	2	cue_social	n/a	16	-5	n/a	n/a	n/a
35.122017	2	cue_social_low	n/a	16	-6	n/a	n/a	n/a
41.941810	2	cue_social	n/a	32	11	n/a	n/a	n/a
41.941810	2	cue_social_high	n/a	32	10	n/a	n/a	n/a
48.775414	2	cue_social	n/a	32	11	n/a	n/a	n/a
48.775414	2	cue_social_high	n/a	32	10	n/a	n/a	n/a
59.624550	2	cue_nonsocial	n/a	16	-6	n/a	n/a	n/a
59.624550	2	cue_nonsocial_low	n/a	16	-5	n/a	n/a	n/a
68.874270	2	cue_nonsocial	n/a	16	-6	n/a	n/a	n/a
68.874270	2	cue_nonsocial_low	n/a	16	-5	n/a	n/a	n/a
75.707924	2	cue_nonsocial	n/a	16	-6	n/a	n/a	n/a
75.707924	2	cue_nonsocial_low	n/a	16	-5	n/a	n/a	n/a
83.460740	2	cue_social	n/a	16	-5	n/a	n/a	n/a
83.460740	2	cue_social_low	n/a	16	-6	n/a	n/a	n/a
92.607796	2	cue_nonsocial	n/a	32	10	n/a	n/a	n/a
92.607796	2	cue_nonsocial_high	n/a	32	11	n/a	n/a	n/a
103.475990	2	cue_nonsocial	n/a	32	10	n/a	n/a	n/a
103.475990	2	cue_nonsocial_high	n/a	32	11	n/a	n/a	n/a
115.958220	2	cue_nonsocial	n/a	16	-6	n/a	n/a	n/a
115.958220	2	cue_nonsocial_low	n/a	16	-5	n/a	n/a	n/a
122.791480	2	cue_nonsocial	n/a	32	10	n/a	n/a	n/a
122.791480	2	cue_nonsocial_high	n/a	32	11	n/a	n/a	n/a
132.042100	2	cue_nonsocial	n/a	32	10	n/a	n/a	n/a
132.042100	2	cue_nonsocial_high	n/a	32	11	n/a	n/a	n/a
139.691060	2	cue_nonsocial	n/a	32	10	n/a	n/a	n/a
139.691060	2	cue_nonsocial_high	n/a	32	11	n/a	n/a	n/a
146.647810	2	cue_social	n/a	16	-5	n/a	n/a	n/a
146.647810	2	cue_social_low	n/a	16	-6	n/a	n/a	n/a
153.357970	2	cue_nonsocial	n/a	16	-6	n/a	n/a	n/a
153.357970	2	cue_nonsocial_low	n/a	16	-5	n/a	n/a	n/a
160.190960	2	cue_nonsocial	n/a	16	-6	n/a	n/a	n/a
160.190960	2	cue_nonsocial_low	n/a	16	-5	n/a	n/a	n/a
167.900730	2	cue_social	n/a	16	-5	n/a	n/a	n/a
167.900730	2	cue_social_low	n/a	16	-6	n/a	n/a	n/a
175.479520	2	cue_social	n/a	16	-5	n/a	n/a	n/a
175.479520	2	cue_social_low	n/a	16	-6	n/a	n/a	n/a
182.307480	2	cue_nonsocial	n/a	16	-6	n/a	n/a	n/a
182.307480	2	cue_nonsocial_low	n/a	16	-5	n/a	n/a	n/a
190.052410	2	cue_social	n/a	16	-5	n/a	n/a	n/a
190.052410	2	cue_social_low	n/a	16	-6	n/a	n/a	n/a
199.335220	2	cue_social	n/a	16	-5	n/a	n/a	n/a
199.335220	2	cue_social_low	n/a	16	-6	n/a	n/a	n/a
206.951110	2	cue_social	n/a	32	11	n/a	n/a	n/a
206.951110	2	cue_social_high	n/a	32	10	n/a	n/a	n/a
214.524250	2	cue_nonsocial	n/a	16	-6	n/a	n/a	n/a
214.524250	2	cue_nonsocial_low	n/a	16	-5	n/a	n/a	n/a
223.773600	2	cue_nonsocial	n/a	16	-6	n/a	n/a	n/a
223.773600	2	cue_nonsocial_low	n/a	16	-5	n/a	n/a	n/a
233.141530	2	cue_social	n/a	16	-5	n/a	n/a	n/a
233.141530	2	cue_social_low	n/a	16	-6	n/a	n/a	n/a
240.690100	2	cue_nonsocial	n/a	16	-6	n/a	n/a	n/a
240.690100	2	cue_nonsocial_low	n/a	16	-5	n/a	n/a	n/a
247.618210	2	cue_social	n/a	16	-5	n/a	n/a	n/a
247.618210	2	cue_social_low	n/a	16	-6	n/a	n/a	n/a
254.356950	2	cue_nonsocial	n/a	32	10	n/a	n/a	n/a
254.356950	2	cue_nonsocial_high	n/a	32	11	n/a	n/a	n/a
261.190100	2	cue_nonsocial	n/a	32	10	n/a	n/a	n/a
261.190100	2	cue_nonsocial_high	n/a	32	11	n/a	n/a	n/a
268.129820	2	cue_social	n/a	32	11	n/a	n/a	n/a
268.129820	2	cue_social_high	n/a	32	10	n/a	n/a	n/a
275.767580	2	cue_social	n/a	32	11	n/a	n/a	n/a
275.767580	2	cue_social_high	n/a	32	10	n/a	n/a	n/a
282.511900	2	cue_nonsocial	n/a	16	-6	n/a	n/a	n/a
282.511900	2	cue_nonsocial_low	n/a	16	-5	n/a	n/a	n/a
289.426060	2	cue_social	n/a	32	11	n/a	n/a	n/a
289.426060	2	cue_social_high	n/a	32	10	n/a	n/a	n/a
296.274170	2	cue_social	n/a	16	-5	n/a	n/a	n/a
296.274170	2	cue_social_low	n/a	16	-6	n/a	n/a	n/a
303.007300	2	cue_nonsocial	n/a	32	10	n/a	n/a	n/a
303.007300	2	cue_nonsocial_high	n/a	32	11	n/a	n/a	n/a
310.738400	2	cue_social	n/a	16	-5	n/a	n/a	n/a
310.738400	2	cue_social_low	n/a	16	-6	n/a	n/a	n/a
318.307250	2	cue_nonsocial	n/a	16	-6	n/a	n/a	n/a
318.307250	2	cue_nonsocial_low	n/a	16	-5	n/a	n/a	n/a
325.140560	2	cue_nonsocial	n/a	16	-6	n/a	n/a	n/a
325.140560	2	cue_nonsocial_low	n/a	16	-5	n/a	n/a	n/a
332.097000	2	cue_social	n/a	16	-5	n/a	n/a	n/a
332.097000	2	cue_social_low	n/a	16	-6	n/a	n/a	n/a
338.877750	2	cue_social	n/a	16	-5	n/a	n/a	n/a
338.877750	2	cue_social_low	n/a	16	-6	n/a	n/a	n/a
345.757170	2	cue_social	n/a	32	11	n/a	n/a	n/a
345.757170	2	cue_social_high	n/a	32	10	n/a	n/a	n/a
353.378080	2	cue_social	n/a	32	11	n/a	n/a	n/a
353.378080	2	cue_social_high	n/a	32	10	n/a	n/a	n/a
364.164370	2	cue_social	n/a	16	-5	n/a	n/a	n/a
364.164370	2	cue_social_low	n/a	16	-6	n/a	n/a	n/a
371.096680	2	cue_social	n/a	16	-5	n/a	n/a	n/a
371.096680	2	cue_social_low	n/a	16	-6	n/a	n/a	n/a
6.513955	1.649597	dec_social_choice	1.649597	16.000000	n/a	4	1.595745e-02	1.595745e-02
6.513955	1.649597	dec_choice	1.649597	16.000000	n/a	4	1.953125e-02	1.953125e-02
6.513955	1.649597	dec_social_accept	1.649597	16.000000	n/a	4	-8.814103e-03	-8.814103e-03
6.513955	1.649597	dec_accept	1.649597	16.000000	n/a	4	1.488095e-03	1.488095e-03
6.513955	1.649597	dec_social_accept_high	1.649597	16.000000	n/a	4	1.953125e-02	1.953125e-02
14.163068	1.483866	dec_nonsocial_choice	1.483866	32.000000	n/a	3	-1.402926e-01	-1.402926e-01
14.163068	1.483866	dec_choice	1.483866	32.000000	n/a	3	-1.440217e-01	-1.440217e-01
14.163068	1.483866	dec_nonsocial_accept	1.483866	32.000000	n/a	3	-1.650641e-01	-1.650641e-01
14.163068	1.483866	dec_accept	1.483866	32.000000	n/a	3	-1.770833e-01	-1.770833e-01
14.163068	1.483866	dec_nonsocial_low	1.483866	32.000000	n/a	3	-1.440217e-01	-1.440217e-01
14.163068	1.483866	dec_nonsocial_accept_low	1.483866	32.000000	n/a	3	-1.770833e-01	-1.770833e-01
20.996834	1.732610	dec_nonsocial_choice	1.732610	16.000000	n/a	0	0	-2.340426e-01
20.996834	1.732610	dec_choice	1.732610	16.000000	n/a	0	0	-2.377717e-01
20.996834	1.732610	dec_nonsocial_reject	1.732610	16.000000	n/a	0	0	-5.078125e-02
20.996834	1.732610	dec_reject	1.732610	16.000000	n/a	0	0	-5.625000e-02
20.996834	1.732610	dec_nonsocial_low	1.732610	16.000000	n/a	0	-2.377717e-01	-2.377717e-01
20.996834	1.732610	dec_nonsocial_reject_low	1.732610	16.000000	n/a	1	-5.625000e-02	-1.187500e-01
30.263502	2.333090	dec_nonsocial_choice	2.333090	16.000000	n/a	8	2.659574e-01	2.659574e-01
30.263502	2.333090	dec_choice	2.333090	16.000000	n/a	8	2.622283e-01	2.622283e-01
30.263502	2.333090	dec_nonsocial_accept	2.333090	16.000000	n/a	8	2.411859e-01	2.411859e-01
30.263502	2.333090	dec_accept	2.333090	16.000000	n/a	8	2.291667e-01	2.291667e-01
30.263502	2.333090	dec_nonsocial_high	2.333090	16.000000	n/a	8	2.622283e-01	2.622283e-01
30.263502	2.333090	dec_nonsocial_accept_high	2.333090	16.000000	n/a	8	2.291667e-01	2.291667e-01
37.095604	1.517753	dec_social_choice	1.517753	16.000000	n/a	0	0	-2.340426e-01
37.095604	1.517753	dec_choice	1.517753	16.000000	n/a	0	0	-2.304688e-01
37.095604	1.517753	dec_social_reject	1.517753	16.000000	n/a	0	0	1.171875e-02
37.095604	1.517753	dec_reject	1.517753	16.000000	n/a	0	0	2.083333e-02
37.095604	1.517753	dec_social_reject_low	1.517753	16.000000	n/a	2	-1.054688e-01	-2.304688e-01
43.929966	1.066122	dec_social_choice	1.066122	32.000000	n/a	2	-1.715426e-01	-1.715426e-01
43.929966	1.066122	dec_choice	1.066122	32.000000	n/a	2	-1.679688e-01	-1.679688e-01
43.929966	1.066122	dec_social_accept	1.066122	32.000000	n/a	2	-1.963141e-01	-1.963141e-01
43.929966	1.066122	dec_accept	1.066122	32.000000	n/a	2	-1.860119e-01	-1.860119e-01
43.929966	1.066122	dec_social_low	1.066122	32.000000	n/a	2	-1.679688e-01	-1.679688e-01
43.929966	1.066122	dec_social_accept_low	1.066122	32.000000	n/a	2	-1.679688e-01	-1.679688e-01
50.763500	1.865958	dec_social_choice	1.865958	32.000000	n/a	3	-1.402926e-01	-1.402926e-01
50.763500	1.865958	dec_choice	1.865958	32.000000	n/a	3	-1.367188e-01	-1.367188e-01
50.763500	1.865958	dec_social_accept	1.865958	32.000000	n/a	3	-1.650641e-01	-1.650641e-01
50.763500	1.865958	dec_accept	1.865958	32.000000	n/a	3	-1.547619e-01	-1.547619e-01
50.763500	1.865958	dec_social_accept_low	1.865958	32.000000	n/a	3	-1.367188e-01	-1.367188e-01
61.628990	1.950506	dec_nonsocial_choice	1.950506	16.000000	n/a	0	0	-2.340426e-01
61.628990	1.950506	dec_choice	1.950506	16.000000	n/a	0	0	-2.377717e-01
61.628990	1.950506	dec_nonsocial_reject	1.950506	16.000000	n/a	0	0	1.171875e-02
61.628990	1.950506	dec_reject	1.950506	16.000000	n/a	0	0	6.250000e-03
61.628990	1.950506	dec_nonsocial_low	1.950506	16.000000	n/a	0	-2.377717e-01	-2.377717e-01
61.628990	1.950506	dec_nonsocial_reject_low	1.950506	16.000000	n/a	2	6.250000e-03	-1.187500e-01
70.879670	1.916171	dec_nonsocial_choice	1.916171	16.000000	n/a	2	-1.090426e-01	-1.090426e-01
70.879670	1.916171	dec_choice	1.916171	16.000000	n/a	2	-1.127717e-01	-1.127717e-01
70.879670	1.916171	dec_nonsocial_accept	1.916171	16.000000	n/a	2	-1.338141e-01	-1.338141e-01
70.879670	1.916171	dec_accept	1.916171	16.000000	n/a	2	-1.458333e-01	-1.458333e-01
70.879670	1.916171	dec_nonsocial_low	1.916171	16.000000	n/a	2	-1.127717e-01	-1.127717e-01
70.879670	1.916171	dec_nonsocial_accept_low	1.916171	16.000000	n/a	2	-1.458333e-01	-1.458333e-01
77.713470	1.033404	dec_nonsocial_choice	1.033404	16.000000	n/a	0	0	-2.340426e-01
77.713470	1.033404	dec_choice	1.033404	16.000000	n/a	0	0	-2.377717e-01
77.713470	1.033404	dec_nonsocial_reject	1.033404	16.000000	n/a	0	0	-5.078125e-02
77.713470	1.033404	dec_reject	1.033404	16.000000	n/a	0	0	-5.625000e-02
77.713470	1.033404	dec_nonsocial_reject_low	1.033404	16.000000	n/a	1	-4.166667e-02	-1.041667e-01
85.362990	0.916318	dec_social_choice	0.916318	16.000000	n/a	8	2.659574e-01	2.659574e-01
85.362990	0.916318	dec_choice	0.916318	16.000000	n/a	8	2.695312e-01	2.695312e-01
85.362990	0.916318	dec_social_accept	0.916318	16.000000	n/a	8	2.411859e-01	2.411859e-01
85.362990	0.916318	dec_accept	0.916318	16.000000	n/a	8	2.514881e-01	2.514881e-01
85.362990	0.916318	dec_social_high	0.916318	16.000000	n/a	8	2.695312e-01	2.695312e-01
85.362990	0.916318	dec_social_accept_high	0.916318	16.000000	n/a	8	2.695312e-01	2.695312e-01
94.613396	1.833416	dec_nonsocial_choice	1.833416	32.000000	n/a	8	1.595745e-02	1.595745e-02
94.613396	1.833416	dec_choice	1.833416	32.000000	n/a	8	1.222826e-02	1.222826e-02
94.613396	1.833416	dec_nonsocial_accept	1.833416	32.000000	n/a	8	-8.814103e-03	-8.814103e-03
94.613396	1.833416	dec_accept	1.833416	32.000000	n/a	8	-2.083333e-02	-2.083333e-02
94.613396	1.833416	dec_nonsocial_high	1.833416	32.000000	n/a	8	1.222826e-02	1.222826e-02
94.613396	1.833416	dec_nonsocial_accept_high	1.833416	32.000000	n/a	8	-2.083333e-02	-2.083333e-02
105.479830	0.699954	dec_nonsocial_choice	0.699954	32.000000	n/a	0	0	-2.340426e-01
105.479830	0.699954	dec_choice	0.699954	32.000000	n/a	0	0	-2.377717e-01
105.479830	0.699954	dec_nonsocial_reject	0.699954	32.000000	n/a	0	0	1.367188e-01
105.479830	0.699954	dec_reject	0.699954	32.000000	n/a	0	0	1.312500e-01
105.479830	0.699954	dec_nonsocial_low	0.699954	32.000000	n/a	0	-2.377717e-01	-2.377717e-01
105.479830	0.699954	dec_nonsocial_reject_low	0.699954	32.000000	n/a	8	1.312500e-01	-1.187500e-01
117.963520	0.982767	dec_nonsocial_choice	0.982767	16.000000	n/a	4	1.595745e-02	1.595745e-02
117.963520	0.982767	dec_choice	0.982767	16.000000	n/a	4	1.222826e-02	1.222826e-02
117.963520	0.982767	dec_nonsocial_accept	0.982767	16.000000	n/a	4	-8.814103e-03	-8.814103e-03
117.963520	0.982767	dec_accept	0.982767	16.000000	n/a	4	-2.083333e-02	-2.083333e-02
117.963520	0.982767	dec_nonsocial_accept_high	0.982767	16.000000	n/a	4	1.488095e-03	1.488095e-03
124.796480	2.616029	dec_nonsocial_choice	2.616029	32.000000	n/a	2	-1.715426e-01	-1.715426e-01
124.796480	2.616029	dec_choice	2.616029	32.000000	n/a	2	-1.752717e-01	-1.752717e-01
124.796480	2.616029	dec_nonsocial_accept	2.616029	32.000000	n/a	2	-1.963141e-01	-1.963141e-01
124.796480	2.616029	dec_accept	2.616029	32.000000	n/a	2	-2.083333e-01	-2.083333e-01
124.796480	2.616029	dec_nonsocial_low	2.616029	32.000000	n/a	2	-1.752717e-01	-1.752717e-01
124.796480	2.616029	dec_nonsocial_accept_low	2.616029	32.000000	n/a	2	-2.083333e-01	-2.083333e-01
134.046620	0.983147	dec_nonsocial_choice	0.983147	32.000000	n/a	16	2.659574e-01	2.659574e-01
134.046620	0.983147	dec_choice	0.983147	32.000000	n/a	16	2.622283e-01	2.622283e-01
134.046620	0.983147	dec_nonsocial_accept	0.983147	32.000000	n/a	16	2.411859e-01	2.411859e-01
134.046620	0.983147	dec_accept	0.983147	32.000000	n/a	16	2.291667e-01	2.291667e-01
134.046620	0.983147	dec_nonsocial_accept_high	0.983147	32.000000	n/a	16	2.514881e-01	2.514881e-01
141.696780	1.182906	dec_nonsocial_choice	1.182906	32.000000	n/a	8	1.595745e-02	1.595745e-02
141.696780	1.182906	dec_choice	1.182906	32.000000	n/a	8	1.222826e-02	1.222826e-02
141.696780	1.182906	dec_nonsocial_accept	1.182906	32.000000	n/a	8	-8.814103e-03	-8.814103e-03
141.696780	1.182906	dec_accept	1.182906	32.000000	n/a	8	-2.083333e-02	-2.083333e-02
141.696780	1.182906	dec_nonsocial_high	1.182906	32.000000	n/a	8	1.222826e-02	1.222826e-02
141.696780	1.182906	dec_nonsocial_accept_high	1.182906	32.000000	n/a	8	-2.083333e-02	-2.083333e-02
148.528270	1.567811	dec_social_choice	1.567811	16.000000	n/a	4	1.595745e-02	1.595745e-02
148.528270	1.567811	dec_choice	1.567811	16.000000	n/a	4	1.953125e-02	1.953125e-02
148.528270	1.567811	dec_social_accept	1.567811	16.000000	n/a	4	-8.814103e-03	-8.814103e-03
148.528270	1.567811	dec_accept	1.567811	16.000000	n/a	4	1.488095e-03	1.488095e-03
148.528270	1.567811	dec_social_high	1.567811	16.000000	n/a	4	1.953125e-02	1.953125e-02
148.528270	1.567811	dec_social_accept_high	1.567811	16.000000	n/a	4	1.953125e-02	1.953125e-02
155.362840	1.066172	dec_nonsocial_choice	1.066172	16.000000	n/a	8	2.659574e-01	2.659574e-01
155.362840	1.066172	dec_choice	1.066172	16.000000	n/a	8	2.622283e-01	2.622283e-01
155.362840	1.066172	dec_nonsocial_accept	1.066172	16.000000	n/a	8	2.411859e-01	2.411859e-01
155.362840	1.066172	dec_accept	1.066172	16.000000	n/a	8	2.291667e-01	2.291667e-01
155.362840	1.066172	dec_nonsocial_accept_high	1.066172	16.000000	n/a	8	2.514881e-01	2.514881e-01
162.196370	3.233140	dec_nonsocial_choice	3.233140	16.000000	n/a	1	-1.715426e-01	-1.715426e-01
162.196370	3.233140	dec_choice	3.233140	16.000000	n/a	1	-1.752717e-01	-1.752717e-01
162.196370	3.233140	dec_nonsocial_accept	3.233140	16.000000	n/a	1	-1.963141e-01	-1.963141e-01
162.196370	3.233140	dec_accept	3.233140	16.000000	n/a	1	-2.083333e-01	-2.083333e-01
162.196370	3.233140	dec_nonsocial_accept_low	3.233140	16.000000	n/a	1	-1.860119e-01	-1.860119e-01
169.845980	1.100143	dec_social_choice	1.100143	16.000000	n/a	4	1.595745e-02	1.595745e-02
169.845980	1.100143	dec_choice	1.100143	16.000000	n/a	4	1.953125e-02	1.953125e-02
169.845980	1.100143	dec_social_accept	1.100143	16.000000	n/a	4	-8.814103e-03	-8.814103e-03
169.845980	1.100143	dec_accept	1.100143	16.000000	n/a	4	1.488095e-03	1.488095e-03
169.845980	1.100143	dec_social_accept_high	1.100143	16.000000	n/a	4	1.953125e-02	1.953125e-02
177.479840	1.932517	dec_social_choice	1.932517	16.000000	n/a	1	-1.715426e-01	-1.715426e-01
177.479840	1.932517	dec_choice	1.932517	16.000000	n/a	1	-1.679688e-01	-1.679688e-01
177.479840	1.932517	dec_social_accept	1.932517	16.000000	n/a	1	-1.963141e-01	-1.963141e-01
177.479840	1.932517	dec_accept	1.932517	16.000000	n/a	1	-1.860119e-01	-1.860119e-01
177.479840	1.932517	dec_social_accept_low	1.932517	16.000000	n/a	1	-1.679688e-01	-1.679688e-01
184.312410	1.900350	dec_nonsocial_choice	1.900350	16.000000	n/a	1	-1.715426e-01	-1.715426e-01
184.312410	1.900350	dec_choice	1.900350	16.000000	n/a	1	-1.752717e-01	-1.752717e-01
184.312410	1.900350	dec_nonsocial_accept	1.900350	16.000000	n/a	1	-1.963141e-01	-1.963141e-01
184.312410	1.900350	dec_accept	1.900350	16.000000	n/a	1	-2.083333e-01	-2.083333e-01
184.312410	1.900350	dec_nonsocial_low	1.900350	16.000000	n/a	1	-1.752717e-01	-1.752717e-01
184.312410	1.900350	dec_nonsocial_accept_low	1.900350	16.000000	n/a	1	-2.083333e-01	-2.083333e-01
191.963600	1.882561	dec_social_choice	1.882561	16.000000	n/a	0	0	-2.340426e-01
191.963600	1.882561	dec_choice	1.882561	16.000000	n/a	0	0	-2.304688e-01
191.963600	1.882561	dec_social_reject	1.882561	16.000000	n/a	0	0	-5.078125e-02
191.963600	1.882561	dec_reject	1.882561	16.000000	n/a	0	0	-4.166667e-02
191.963600	1.882561	dec_social_low	1.882561	16.000000	n/a	0	-2.304688e-01	-2.304688e-01
191.963600	1.882561	dec_social_reject_low	1.882561	16.000000	n/a	1	-1.679688e-01	-2.304688e-01
201.229500	2.366595	dec_social_choice	2.366595	16.000000	n/a	4	1.595745e-02	1.595745e-02
201.229500	2.366595	dec_choice	2.366595	16.000000	n/a	4	1.953125e-02	1.953125e-02
201.229500	2.366595	dec_social_accept	2.366595	16.000000	n/a	4	-8.814103e-03	-8.814103e-03
201.229500	2.366595	dec_accept	2.366595	16.000000	n/a	4	1.488095e-03	1.488095e-03
201.229500	2.366595	dec_social_high	2.366595	16.000000	n/a	4	1.953125e-02	1.953125e-02
201.229500	2.366595	dec_social_accept_high	2.366595	16.000000	n/a	4	1.953125e-02	1.953125e-02
208.878710	1.050822	dec_social_choice	1.050822	32.000000	n/a	16	2.659574e-01	2.659574e-01
208.878710	1.050822	dec_choice	1.050822	32.000000	n/a	16	2.695312e-01	2.695312e-01
208.878710	1.050822	dec_social_accept	1.050822	32.000000	n/a	16	2.411859e-01	2.411859e-01
208.878710	1.050822	dec_accept	1.050822	32.000000	n/a	16	2.514881e-01	2.514881e-01
208.878710	1.050822	dec_social_accept_high	1.050822	32.000000	n/a	16	2.695312e-01	2.695312e-01
216.529680	1.166222	dec_nonsocial_choice	1.166222	16.000000	n/a	8	2.659574e-01	2.659574e-01
216.529680	1.166222	dec_choice	1.166222	16.000000	n/a	8	2.622283e-01	2.622283e-01
216.529680	1.166222	dec_nonsocial_accept	1.166222	16.000000	n/a	8	2.411859e-01	2.411859e-01
216.529680	1.166222	dec_accept	1.166222	16.000000	n/a	8	2.291667e-01	2.291667e-01
216.529680	1.166222	dec_nonsocial_high	1.166222	16.000000	n/a	8	2.622283e-01	2.622283e-01
216.529680	1.166222	dec_nonsocial_accept_high	1.166222	16.000000	n/a	8	2.291667e-01	2.291667e-01
225.780140	1.415576	dec_nonsocial_choice	1.415576	16.000000	n/a	4	1.595745e-02	1.595745e-02
225.780140	1.415576	dec_choice	1.415576	16.000000	n/a	4	1.222826e-02	1.222826e-02
225.780140	1.415576	dec_nonsocial_accept	1.415576	16.000000	n/a	4	-8.814103e-03	-8.814103e-03
225.780140	1.415576	dec_accept	1.415576	16.000000	n/a	4	-2.083333e-02	-2.083333e-02
225.780140	1.415576	dec_nonsocial_accept_high	1.415576	16.000000	n/a	4	1.488095e-03	1.488095e-03
235.045720	1.316471	dec_social_choice	1.316471	16.000000	n/a	8	2.659574e-01	2.659574e-01
235.045720	1.316471	dec_choice	1.316471	16.000000	n/a	8	2.695312e-01	2.695312e-01
235.045720	1.316471	dec_social_accept	1.316471	16.000000	n/a	8	2.411859e-01	2.411859e-01
235.045720	1.316471	dec_accept	1.316471	16.000000	n/a	8	2.514881e-01	2.514881e-01
235.045720	1.316471	dec_social_accept_high	1.316471	16.000000	n/a	8	2.695312e-01	2.695312e-01
242.696640	1.199424	dec_nonsocial_choice	1.199424	16.000000	n/a	8	2.659574e-01	2.659574e-01
242.696640	1.199424	dec_choice	1.199424	16.000000	n/a	8	2.622283e-01	2.622283e-01
242.696640	1.199424	dec_nonsocial_accept	1.199424	16.000000	n/a	8	2.411859e-01	2.411859e-01
242.696640	1.199424	dec_accept	1.199424	16.000000	n/a	8	2.291667e-01	2.291667e-01
242.696640	1.199424	dec_nonsocial_high	1.199424	16.000000	n/a	8	2.622283e-01	2.622283e-01
242.696640	1.199424	dec_nonsocial_accept_high	1.199424	16.000000	n/a	8	2.291667e-01	2.291667e-01
249.529430	2.332802	dec_social_choice	2.332802	16.000000	n/a	1	-1.715426e-01	-1.715426e-01
249.529430	2.332802	dec_choice	2.332802	16.000000	n/a	1	-1.679688e-01	-1.679688e-01
249.529430	2.332802	dec_social_accept	2.332802	16.000000	n/a	1	-1.963141e-01	-1.963141e-01
249.529430	2.332802	dec_accept	2.332802	16.000000	n/a	1	-1.860119e-01	-1.860119e-01
249.529430	2.332802	dec_social_accept_low	2.332802	16.000000	n/a	1	-1.679688e-01	-1.679688e-01
256.361700	3.766946	missed_trial	3.766946	32.000000	n/a	n/a	n/a	n/a
263.196530	1.332789	dec_nonsocial_choice	1.332789	32.000000	n/a	3	-1.402926e-01	-1.402926e-01
263.196530	1.332789	dec_choice	1.332789	32.000000	n/a	3	-1.440217e-01	-1.440217e-01
263.196530	1.332789	dec_nonsocial_accept	1.332789	32.000000	n/a	3	-1.650641e-01	-1.650641e-01
263.196530	1.332789	dec_accept	1.332789	32.000000	n/a	3	-1.770833e-01	-1.770833e-01
263.196530	1.332789	dec_nonsocial_accept_low	1.332789	32.000000	n/a	3	-1.547619e-01	-1.547619e-01
270.028960	1.166193	dec_social_choice	1.166193	32.000000	n/a	8	1.595745e-02	1.595745e-02
270.028960	1.166193	dec_choice	1.166193	32.000000	n/a	8	1.953125e-02	1.953125e-02
270.028960	1.166193	dec_social_accept	1.166193	32.000000	n/a	8	-8.814103e-03	-8.814103e-03
270.028960	1.166193	dec_accept	1.166193	32.000000	n/a	8	1.488095e-03	1.488095e-03
270.028960	1.166193	dec_social_high	1.166193	32.000000	n/a	8	1.953125e-02	1.953125e-02
270.028960	1.166193	dec_social_accept_high	1.166193	32.000000	n/a	8	1.953125e-02	1.953125e-02
277.678650	1.284360	dec_social_choice	1.284360	32.000000	n/a	3	-1.402926e-01	-1.402926e-01
277.678650	1.284360	dec_choice	1.284360	32.000000	n/a	3	-1.367188e-01	-1.367188e-01
277.678650	1.284360	dec_social_accept	1.284360	32.000000	n/a	3	-1.650641e-01	-1.650641e-01
277.678650	1.284360	dec_accept	1.284360	32.000000	n/a	3	-1.547619e-01	-1.547619e-01
277.678650	1.284360	dec_social_low	1.284360	32.000000	n/a	3	-1.367188e-01	-1.367188e-01
277.678650	1.284360	dec_social_accept_low	1.284360	32.000000	n/a	3	-1.367188e-01	-1.367188e-01
284.513500	1.799001	dec_nonsocial_choice	1.799001	16.000000	n/a	2	-1.090426e-01	-1.090426e-01
284.513500	1.799001	dec_choice	1.799001	16.000000	n/a	2	-1.127717e-01	-1.127717e-01
284.513500	1.799001	dec_nonsocial_accept	1.799001	16.000000	n/a	2	-1.338141e-01	-1.338141e-01
284.513500	1.799001	dec_accept	1.799001	16.000000	n/a	2	-1.458333e-01	-1.458333e-01
284.513500	1.799001	dec_nonsocial_accept_low	1.799001	16.000000	n/a	2	-1.235119e-01	-1.235119e-01
291.345550	1.183196	dec_social_choice	1.183196	32.000000	n/a	8	1.595745e-02	1.595745e-02
291.345550	1.183196	dec_choice	1.183196	32.000000	n/a	8	1.953125e-02	1.953125e-02
291.345550	1.183196	dec_social_accept	1.183196	32.000000	n/a	8	-8.814103e-03	-8.814103e-03
291.345550	1.183196	dec_accept	1.183196	32.000000	n/a	8	1.488095e-03	1.488095e-03
291.345550	1.183196	dec_social_accept_high	1.183196	32.000000	n/a	8	1.953125e-02	1.953125e-02
298.178830	1.850105	dec_social_choice	1.850105	16.000000	n/a	1	-1.715426e-01	-1.715426e-01
298.178830	1.850105	dec_choice	1.850105	16.000000	n/a	1	-1.679688e-01	-1.679688e-01
298.178830	1.850105	dec_social_accept	1.850105	16.000000	n/a	1	-1.963141e-01	-1.963141e-01
298.178830	1.850105	dec_accept	1.850105	16.000000	n/a	1	-1.860119e-01	-1.860119e-01
298.178830	1.850105	dec_social_accept_low	1.850105	16.000000	n/a	1	-1.679688e-01	-1.679688e-01
305.012760	1.865929	dec_nonsocial_choice	1.865929	32.000000	n/a	0	0	-2.340426e-01
305.012760	1.865929	dec_choice	1.865929	32.000000	n/a	0	0	-2.377717e-01
305.012760	1.865929	dec_nonsocial_reject	1.865929	32.000000	n/a	0	0	-1.953125e-02
305.012760	1.865929	dec_reject	1.865929	32.000000	n/a	0	0	-2.500000e-02
305.012760	1.865929	dec_nonsocial_low	1.865929	32.000000	n/a	0	-2.377717e-01	-2.377717e-01
305.012760	1.865929	dec_nonsocial_reject_low	1.865929	32.000000	n/a	3	-2.500000e-02	-1.187500e-01
312.661530	2.050901	dec_social_choice	2.050901	16.000000	n/a	2	-1.090426e-01	-1.090426e-01
312.661530	2.050901	dec_choice	2.050901	16.000000	n/a	2	-1.054688e-01	-1.054688e-01
312.661530	2.050901	dec_social_accept	2.050901	16.000000	n/a	2	-1.338141e-01	-1.338141e-01
312.661530	2.050901	dec_accept	2.050901	16.000000	n/a	2	-1.235119e-01	-1.235119e-01
312.661530	2.050901	dec_social_accept_low	2.050901	16.000000	n/a	2	-1.054688e-01	-1.054688e-01
320.313300	1.465596	dec_nonsocial_choice	1.465596	16.000000	n/a	8	2.659574e-01	2.659574e-01
320.313300	1.465596	dec_choice	1.465596	16.000000	n/a	8	2.622283e-01	2.622283e-01
320.313300	1.465596	dec_nonsocial_accept	1.465596	16.000000	n/a	8	2.411859e-01	2.411859e-01
320.313300	1.465596	dec_accept	1.465596	16.000000	n/a	8	2.291667e-01	2.291667e-01
320.313300	1.465596	dec_nonsocial_accept_high	1.465596	16.000000	n/a	8	2.514881e-01	2.514881e-01
327.146270	1.032952	dec_nonsocial_choice	1.032952	16.000000	n/a	4	1.595745e-02	1.595745e-02
327.146270	1.032952	dec_choice	1.032952	16.000000	n/a	4	1.222826e-02	1.222826e-02
327.146270	1.032952	dec_nonsocial_accept	1.032952	16.000000	n/a	4	-8.814103e-03	-8.814103e-03
327.146270	1.032952	dec_accept	1.032952	16.000000	n/a	4	-2.083333e-02	-2.083333e-02
327.146270	1.032952	dec_nonsocial_accept_high	1.032952	16.000000	n/a	4	1.488095e-03	1.488095e-03
333.978180	2.117599	dec_social_choice	2.117599	16.000000	n/a	0	0	-2.340426e-01
333.978180	2.117599	dec_choice	2.117599	16.000000	n/a	0	0	-2.304688e-01
333.978180	2.117599	dec_social_reject	2.117599	16.000000	n/a	0	0	1.171875e-02
333.978180	2.117599	dec_reject	2.117599	16.000000	n/a	0	0	2.083333e-02
333.978180	2.117599	dec_social_low	2.117599	16.000000	n/a	0	-2.304688e-01	-2.304688e-01
333.978180	2.117599	dec_social_reject_low	2.117599	16.000000	n/a	2	-1.054688e-01	-2.304688e-01
340.811770	1.784140	dec_social_choice	1.784140	16.000000	n/a	8	2.659574e-01	2.659574e-01
340.811770	1.784140	dec_choice	1.784140	16.000000	n/a	8	2.695312e-01	2.695312e-01
340.811770	1.784140	dec_social_accept	1.784140	16.000000	n/a	8	2.411859e-01	2.411859e-01
340.811770	1.784140	dec_accept	1.784140	16.000000	n/a	8	2.514881e-01	2.514881e-01
340.811770	1.784140	dec_social_high	1.784140	16.000000	n/a	8	2.695312e-01	2.695312e-01
340.811770	1.784140	dec_social_accept_high	1.784140	16.000000	n/a	8	2.695312e-01	2.695312e-01
347.646240	1.299447	dec_social_choice	1.299447	32.000000	n/a	3	-1.402926e-01	-1.402926e-01
347.646240	1.299447	dec_choice	1.299447	32.000000	n/a	3	-1.367188e-01	-1.367188e-01
347.646240	1.299447	dec_social_accept	1.299447	32.000000	n/a	3	-1.650641e-01	-1.650641e-01
347.646240	1.299447	dec_accept	1.299447	32.000000	n/a	3	-1.547619e-01	-1.547619e-01
347.646240	1.299447	dec_social_accept_low	1.299447	32.000000	n/a	3	-1.367188e-01	-1.367188e-01
355.295350	1.600368	dec_social_choice	1.600368	32.000000	n/a	2	-1.715426e-01	-1.715426e-01
355.295350	1.600368	dec_choice	1.600368	32.000000	n/a	2	-1.679688e-01	-1.679688e-01
355.295350	1.600368	dec_social_accept	1.600368	32.000000	n/a	2	-1.963141e-01	-1.963141e-01
355.295350	1.600368	dec_accept	1.600368	32.000000	n/a	2	-1.860119e-01	-1.860119e-01
355.295350	1.600368	dec_social_low	1.600368	32.000000	n/a	2	-1.679688e-01	-1.679688e-01
355.295350	1.600368	dec_social_accept_low	1.600368	32.000000	n/a	2	-1.679688e-01	-1.679688e-01
366.162230	1.183406	dec_social_choice	1.183406	16.000000	n/a	8	2.659574e-01	2.659574e-01
366.162230	1.183406	dec_choice	1.183406	16.000000	n/a	8	2.695312e-01	2.695312e-01
366.162230	1.183406	dec_social_accept	1.183406	16.000000	n/a	8	2.411859e-01	2.411859e-01
366.162230	1.183406	dec_accept	1.183406	16.000000	n/a	8	2.514881e-01	2.514881e-01
366.162230	1.183406	dec_social_accept_high	1.183406	16.000000	n/a	8	2.695312e-01	2.695312e-01
372.995420	1.000290	dec_social_choice	1.000290	16.000000	n/a	8	2.659574e-01	2.659574e-01
372.995420	1.000290	dec_choice	1.000290	16.000000	n/a	8	2.695312e-01	2.695312e-01
372.995420	1.000290	dec_social_accept	1.000290	16.000000	n/a	8	2.411859e-01	2.411859e-01
372.995420	1.000290	dec_accept	1.000290	16.000000	n/a	8	2.514881e-01	2.514881e-01
372.995420	1.000290	dec_social_accept_high	1.000290	16.000000	n/a	8	2.695312e-01	2.695312e-01
