onset	duration	trial_type	response_time	Endowment	Endowment_pmod	Decision	Decision_pmod	Offer_pmod
4.510488	2	cue_nonsocial	n/a	32	9	n/a	n/a	n/a
4.510488	2	cue_nonsocial_high	n/a	32	6	n/a	n/a	n/a
13.772122	2	cue_social	n/a	32	6	n/a	n/a	n/a
13.772122	2	cue_social_high	n/a	32	9	n/a	n/a	n/a
26.363710	2	cue_social	n/a	32	6	n/a	n/a	n/a
26.363710	2	cue_social_high	n/a	32	9	n/a	n/a	n/a
37.128190	2	cue_nonsocial	n/a	16	-7	n/a	n/a	n/a
37.128190	2	cue_nonsocial_low	n/a	16	-10	n/a	n/a	n/a
47.994087	2	cue_nonsocial	n/a	32	9	n/a	n/a	n/a
47.994087	2	cue_nonsocial_high	n/a	32	6	n/a	n/a	n/a
54.827670	2	cue_nonsocial	n/a	16	-7	n/a	n/a	n/a
54.827670	2	cue_nonsocial_low	n/a	16	-10	n/a	n/a	n/a
62.550854	2	cue_social	n/a	32	6	n/a	n/a	n/a
62.550854	2	cue_social_high	n/a	32	9	n/a	n/a	n/a
70.198500	2	cue_social	n/a	16	-10	n/a	n/a	n/a
70.198500	2	cue_social_low	n/a	16	-7	n/a	n/a	n/a
77.777756	2	cue_nonsocial	n/a	16	-7	n/a	n/a	n/a
77.777756	2	cue_nonsocial_low	n/a	16	-10	n/a	n/a	n/a
84.704400	2	cue_social	n/a	32	6	n/a	n/a	n/a
84.704400	2	cue_social_high	n/a	32	9	n/a	n/a	n/a
92.377884	2	cue_social	n/a	32	6	n/a	n/a	n/a
92.377884	2	cue_social_high	n/a	32	9	n/a	n/a	n/a
103.237730	2	cue_social	n/a	16	-10	n/a	n/a	n/a
103.237730	2	cue_social_low	n/a	16	-7	n/a	n/a	n/a
109.960900	2	cue_nonsocial	n/a	16	-7	n/a	n/a	n/a
109.960900	2	cue_nonsocial_low	n/a	16	-10	n/a	n/a	n/a
116.794754	2	cue_nonsocial	n/a	32	9	n/a	n/a	n/a
116.794754	2	cue_nonsocial_high	n/a	32	6	n/a	n/a	n/a
123.724610	2	cue_social	n/a	32	6	n/a	n/a	n/a
123.724610	2	cue_social_high	n/a	32	9	n/a	n/a	n/a
132.970140	2	cue_social	n/a	32	6	n/a	n/a	n/a
132.970140	2	cue_social_high	n/a	32	9	n/a	n/a	n/a
139.727580	2	cue_nonsocial	n/a	16	-7	n/a	n/a	n/a
139.727580	2	cue_nonsocial_low	n/a	16	-10	n/a	n/a	n/a
147.444470	2	cue_social	n/a	32	6	n/a	n/a	n/a
147.444470	2	cue_social_high	n/a	32	9	n/a	n/a	n/a
155.010740	2	cue_nonsocial	n/a	16	-7	n/a	n/a	n/a
155.010740	2	cue_nonsocial_low	n/a	16	-10	n/a	n/a	n/a
164.307660	2	cue_social	n/a	32	6	n/a	n/a	n/a
164.307660	2	cue_social_high	n/a	32	9	n/a	n/a	n/a
171.928020	2	cue_nonsocial	n/a	32	9	n/a	n/a	n/a
171.928020	2	cue_nonsocial_high	n/a	32	6	n/a	n/a	n/a
178.883700	2	cue_social	n/a	16	-10	n/a	n/a	n/a
178.883700	2	cue_social_low	n/a	16	-7	n/a	n/a	n/a
188.010400	2	cue_nonsocial	n/a	32	9	n/a	n/a	n/a
188.010400	2	cue_nonsocial_high	n/a	32	6	n/a	n/a	n/a
194.944730	2	cue_social	n/a	32	6	n/a	n/a	n/a
194.944730	2	cue_social_high	n/a	32	9	n/a	n/a	n/a
201.677690	2	cue_nonsocial	n/a	16	-7	n/a	n/a	n/a
201.677690	2	cue_nonsocial_low	n/a	16	-10	n/a	n/a	n/a
209.418760	2	cue_social	n/a	32	6	n/a	n/a	n/a
209.418760	2	cue_social_high	n/a	32	9	n/a	n/a	n/a
216.160100	2	cue_nonsocial	n/a	32	9	n/a	n/a	n/a
216.160100	2	cue_nonsocial_high	n/a	32	6	n/a	n/a	n/a
223.912610	2	cue_social	n/a	16	-10	n/a	n/a	n/a
223.912610	2	cue_social_low	n/a	16	-7	n/a	n/a	n/a
233.148400	2	cue_social	n/a	32	6	n/a	n/a	n/a
233.148400	2	cue_social_high	n/a	32	9	n/a	n/a	n/a
239.997340	2	cue_social	n/a	16	-10	n/a	n/a	n/a
239.997340	2	cue_social_low	n/a	16	-7	n/a	n/a	n/a
246.727540	2	cue_nonsocial	n/a	32	9	n/a	n/a	n/a
246.727540	2	cue_nonsocial_high	n/a	32	6	n/a	n/a	n/a
254.370570	2	cue_social	n/a	16	-10	n/a	n/a	n/a
254.370570	2	cue_social_low	n/a	16	-7	n/a	n/a	n/a
261.210360	2	cue_nonsocial	n/a	16	-7	n/a	n/a	n/a
261.210360	2	cue_nonsocial_low	n/a	16	-10	n/a	n/a	n/a
268.044070	2	cue_nonsocial	n/a	16	-7	n/a	n/a	n/a
268.044070	2	cue_nonsocial_low	n/a	16	-10	n/a	n/a	n/a
274.877080	2	cue_nonsocial	n/a	16	-7	n/a	n/a	n/a
274.877080	2	cue_nonsocial_low	n/a	16	-10	n/a	n/a	n/a
281.786100	2	cue_social	n/a	16	-10	n/a	n/a	n/a
281.786100	2	cue_social_low	n/a	16	-7	n/a	n/a	n/a
288.546300	2	cue_nonsocial	n/a	16	-7	n/a	n/a	n/a
288.546300	2	cue_nonsocial_low	n/a	16	-10	n/a	n/a	n/a
296.275570	2	cue_social	n/a	16	-10	n/a	n/a	n/a
296.275570	2	cue_social_low	n/a	16	-7	n/a	n/a	n/a
303.931180	2	cue_social	n/a	32	6	n/a	n/a	n/a
303.931180	2	cue_social_high	n/a	32	9	n/a	n/a	n/a
310.779880	2	cue_social	n/a	16	-10	n/a	n/a	n/a
310.779880	2	cue_social_low	n/a	16	-7	n/a	n/a	n/a
317.549870	2	cue_social	n/a	32	6	n/a	n/a	n/a
317.549870	2	cue_social_high	n/a	32	9	n/a	n/a	n/a
324.343700	2	cue_nonsocial	n/a	16	-7	n/a	n/a	n/a
324.343700	2	cue_nonsocial_low	n/a	16	-10	n/a	n/a	n/a
331.263920	2	cue_social	n/a	32	6	n/a	n/a	n/a
331.263920	2	cue_social_high	n/a	32	9	n/a	n/a	n/a
338.827480	2	cue_nonsocial	n/a	32	9	n/a	n/a	n/a
338.827480	2	cue_nonsocial_high	n/a	32	6	n/a	n/a	n/a
345.676670	2	cue_nonsocial	n/a	16	-7	n/a	n/a	n/a
345.676670	2	cue_nonsocial_low	n/a	16	-10	n/a	n/a	n/a
354.926700	2	cue_nonsocial	n/a	32	9	n/a	n/a	n/a
354.926700	2	cue_nonsocial_high	n/a	32	6	n/a	n/a	n/a
364.177460	2	cue_nonsocial	n/a	32	9	n/a	n/a	n/a
364.177460	2	cue_nonsocial_high	n/a	32	6	n/a	n/a	n/a
371.010100	2	cue_nonsocial	n/a	16	-7	n/a	n/a	n/a
371.010100	2	cue_nonsocial_low	n/a	16	-10	n/a	n/a	n/a
6.516424	0.915991	dec_nonsocial_choice	0.915991	32.000000	n/a	8	1.822917e-02	1.822917e-02
6.516424	0.915991	dec_choice	0.915991	32.000000	n/a	8	1.822917e-02	1.822917e-02
6.516424	0.915991	dec_nonsocial_accept	0.915991	32.000000	n/a	8	-1.527778e-01	-1.527778e-01
6.516424	0.915991	dec_accept	0.915991	32.000000	n/a	8	-1.562500e-01	-1.562500e-01
6.516424	0.915991	dec_nonsocial_accept_high	0.915991	32.000000	n/a	8	-1.500000e-01	-1.500000e-01
15.782983	0.965816	dec_social_choice	0.965816	32.000000	n/a	16	2.682292e-01	2.682292e-01
15.782983	0.965816	dec_choice	0.965816	32.000000	n/a	16	2.682292e-01	2.682292e-01
15.782983	0.965816	dec_social_accept	0.965816	32.000000	n/a	16	9.722222e-02	9.722222e-02
15.782983	0.965816	dec_accept	0.965816	32.000000	n/a	16	1.000000e-01	1.000000e-01
15.782983	0.965816	dec_social_accept_high	0.965816	32.000000	n/a	16	2.682292e-01	2.682292e-01
28.266420	0.816562	dec_social_choice	0.816562	32.000000	n/a	8	1.822917e-02	1.822917e-02
28.266420	0.816562	dec_choice	0.816562	32.000000	n/a	8	1.822917e-02	1.822917e-02
28.266420	0.816562	dec_social_accept	0.816562	32.000000	n/a	8	-1.527778e-01	-1.527778e-01
28.266420	0.816562	dec_accept	0.816562	32.000000	n/a	8	-1.500000e-01	-1.500000e-01
28.266420	0.816562	dec_social_accept_high	0.816562	32.000000	n/a	8	1.822917e-02	1.822917e-02
39.132282	0.683987	dec_nonsocial_choice	0.683987	16.000000	n/a	8	2.682292e-01	2.682292e-01
39.132282	0.683987	dec_choice	0.683987	16.000000	n/a	8	2.682292e-01	2.682292e-01
39.132282	0.683987	dec_nonsocial_accept	0.683987	16.000000	n/a	8	9.722222e-02	9.722222e-02
39.132282	0.683987	dec_accept	0.683987	16.000000	n/a	8	9.375000e-02	9.375000e-02
39.132282	0.683987	dec_nonsocial_accept_high	0.683987	16.000000	n/a	8	1.000000e-01	1.000000e-01
49.999860	1.299699	dec_nonsocial_choice	1.299699	32.000000	n/a	16	2.682292e-01	2.682292e-01
49.999860	1.299699	dec_choice	1.299699	32.000000	n/a	16	2.682292e-01	2.682292e-01
49.999860	1.299699	dec_nonsocial_accept	1.299699	32.000000	n/a	16	9.722222e-02	9.722222e-02
49.999860	1.299699	dec_accept	1.299699	32.000000	n/a	16	9.375000e-02	9.375000e-02
49.999860	1.299699	dec_nonsocial_high	1.299699	32.000000	n/a	16	2.682292e-01	2.682292e-01
49.999860	1.299699	dec_nonsocial_accept_high	1.299699	32.000000	n/a	16	9.375000e-02	9.375000e-02
56.832912	1.049846	dec_nonsocial_choice	1.049846	16.000000	n/a	0	0	-2.317708e-01
56.832912	1.049846	dec_choice	1.049846	16.000000	n/a	0	0	-2.317708e-01
56.832912	1.049846	dec_nonsocial_reject	1.049846	16.000000	n/a	0	0	-4.166667e-03
56.832912	1.049846	dec_reject	1.049846	16.000000	n/a	0	0	-1.953125e-02
56.832912	1.049846	dec_nonsocial_low	1.049846	16.000000	n/a	0	-2.317708e-01	-2.317708e-01
56.832912	1.049846	dec_nonsocial_reject_low	1.049846	16.000000	n/a	2	-1.953125e-02	-1.445312e-01
64.482000	0.900860	dec_social_choice	0.900860	32.000000	n/a	16	2.682292e-01	2.682292e-01
64.482000	0.900860	dec_choice	0.900860	32.000000	n/a	16	2.682292e-01	2.682292e-01
64.482000	0.900860	dec_social_accept	0.900860	32.000000	n/a	16	9.722222e-02	9.722222e-02
64.482000	0.900860	dec_accept	0.900860	32.000000	n/a	16	1.000000e-01	1.000000e-01
64.482000	0.900860	dec_social_accept_high	0.900860	32.000000	n/a	16	2.682292e-01	2.682292e-01
72.132980	0.966654	dec_social_choice	0.966654	16.000000	n/a	0	0	-2.317708e-01
72.132980	0.966654	dec_choice	0.966654	16.000000	n/a	0	0	-2.317708e-01
72.132980	0.966654	dec_social_reject	0.966654	16.000000	n/a	0	0	1.208333e-01
72.132980	0.966654	dec_reject	0.966654	16.000000	n/a	0	0	1.383929e-01
72.132980	0.966654	dec_social_low	0.966654	16.000000	n/a	0	-2.317708e-01	-2.317708e-01
72.132980	0.966654	dec_social_reject_low	0.966654	16.000000	n/a	4	1.822917e-02	-2.317708e-01
79.783030	1.465989	dec_nonsocial_choice	1.465989	16.000000	n/a	0	0	-2.317708e-01
79.783030	1.465989	dec_choice	1.465989	16.000000	n/a	0	0	-2.317708e-01
79.783030	1.465989	dec_nonsocial_reject	1.465989	16.000000	n/a	0	0	3.708333e-01
79.783030	1.465989	dec_reject	1.465989	16.000000	n/a	0	0	3.554688e-01
79.783030	1.465989	dec_nonsocial_reject_low	1.465989	16.000000	n/a	8	3.883929e-01	-1.116071e-01
86.617165	1.232391	dec_social_choice	1.232391	32.000000	n/a	16	2.682292e-01	2.682292e-01
86.617165	1.232391	dec_choice	1.232391	32.000000	n/a	16	2.682292e-01	2.682292e-01
86.617165	1.232391	dec_social_accept	1.232391	32.000000	n/a	16	9.722222e-02	9.722222e-02
86.617165	1.232391	dec_accept	1.232391	32.000000	n/a	16	1.000000e-01	1.000000e-01
86.617165	1.232391	dec_social_accept_high	1.232391	32.000000	n/a	16	2.682292e-01	2.682292e-01
94.266914	1.049154	dec_social_choice	1.049154	32.000000	n/a	0	0	-2.317708e-01
94.266914	1.049154	dec_choice	1.049154	32.000000	n/a	0	0	-2.317708e-01
94.266914	1.049154	dec_social_reject	1.049154	32.000000	n/a	0	0	-6.666667e-02
94.266914	1.049154	dec_reject	1.049154	32.000000	n/a	0	0	-4.910714e-02
94.266914	1.049154	dec_social_reject_low	1.049154	32.000000	n/a	2	-1.692708e-01	-2.317708e-01
105.132290	1.166721	dec_social_choice	1.166721	16.000000	n/a	0	0	-2.317708e-01
105.132290	1.166721	dec_choice	1.166721	16.000000	n/a	0	0	-2.317708e-01
105.132290	1.166721	dec_social_reject	1.166721	16.000000	n/a	0	0	-6.666667e-02
105.132290	1.166721	dec_reject	1.166721	16.000000	n/a	0	0	-4.910714e-02
105.132290	1.166721	dec_social_reject_low	1.166721	16.000000	n/a	1	-1.692708e-01	-2.317708e-01
111.965996	0.883709	dec_nonsocial_choice	0.883709	16.000000	n/a	0	0	-2.317708e-01
111.965996	0.883709	dec_choice	0.883709	16.000000	n/a	0	0	-2.317708e-01
111.965996	0.883709	dec_nonsocial_reject	0.883709	16.000000	n/a	0	0	-6.666667e-02
111.965996	0.883709	dec_reject	0.883709	16.000000	n/a	0	0	-8.203125e-02
111.965996	0.883709	dec_nonsocial_reject_low	0.883709	16.000000	n/a	1	-4.910714e-02	-1.116071e-01
118.800476	1.198868	dec_nonsocial_choice	1.198868	32.000000	n/a	0	0	-2.317708e-01
118.800476	1.198868	dec_choice	1.198868	32.000000	n/a	0	0	-2.317708e-01
118.800476	1.198868	dec_nonsocial_reject	1.198868	32.000000	n/a	0	0	-3.541667e-02
118.800476	1.198868	dec_reject	1.198868	32.000000	n/a	0	0	-5.078125e-02
118.800476	1.198868	dec_nonsocial_low	1.198868	32.000000	n/a	0	-2.317708e-01	-2.317708e-01
118.800476	1.198868	dec_nonsocial_reject_low	1.198868	32.000000	n/a	3	-5.078125e-02	-1.445312e-01
125.632960	0.966349	dec_social_choice	0.966349	32.000000	n/a	0	0	-2.317708e-01
125.632960	0.966349	dec_choice	0.966349	32.000000	n/a	0	0	-2.317708e-01
125.632960	0.966349	dec_social_reject	0.966349	32.000000	n/a	0	0	-6.666667e-02
125.632960	0.966349	dec_reject	0.966349	32.000000	n/a	0	0	-4.910714e-02
125.632960	0.966349	dec_social_low	0.966349	32.000000	n/a	0	-2.317708e-01	-2.317708e-01
125.632960	0.966349	dec_social_reject_low	0.966349	32.000000	n/a	2	-1.692708e-01	-2.317708e-01
134.898100	1.267971	dec_social_choice	1.267971	32.000000	n/a	0	0	-2.317708e-01
134.898100	1.267971	dec_choice	1.267971	32.000000	n/a	0	0	-2.317708e-01
134.898100	1.267971	dec_social_reject	1.267971	32.000000	n/a	0	0	-6.666667e-02
134.898100	1.267971	dec_reject	1.267971	32.000000	n/a	0	0	-4.910714e-02
134.898100	1.267971	dec_social_low	1.267971	32.000000	n/a	0	-2.317708e-01	-2.317708e-01
134.898100	1.267971	dec_social_reject_low	1.267971	32.000000	n/a	2	-1.692708e-01	-2.317708e-01
141.731640	1.934019	dec_nonsocial_choice	1.934019	16.000000	n/a	0	0	-2.317708e-01
141.731640	1.934019	dec_choice	1.934019	16.000000	n/a	0	0	-2.317708e-01
141.731640	1.934019	dec_nonsocial_reject	1.934019	16.000000	n/a	0	0	-6.666667e-02
141.731640	1.934019	dec_reject	1.934019	16.000000	n/a	0	0	-8.203125e-02
141.731640	1.934019	dec_nonsocial_low	1.934019	16.000000	n/a	0	-2.317708e-01	-2.317708e-01
141.731640	1.934019	dec_nonsocial_reject_low	1.934019	16.000000	n/a	1	-8.203125e-02	-1.445312e-01
149.365080	1.051182	dec_social_choice	1.051182	32.000000	n/a	0	0	-2.317708e-01
149.365080	1.051182	dec_choice	1.051182	32.000000	n/a	0	0	-2.317708e-01
149.365080	1.051182	dec_social_reject	1.051182	32.000000	n/a	0	0	-6.666667e-02
149.365080	1.051182	dec_reject	1.051182	32.000000	n/a	0	0	-4.910714e-02
149.365080	1.051182	dec_social_low	1.051182	32.000000	n/a	0	-2.317708e-01	-2.317708e-01
149.365080	1.051182	dec_social_reject_low	1.051182	32.000000	n/a	2	-1.692708e-01	-2.317708e-01
157.015800	0.832951	dec_nonsocial_choice	0.832951	16.000000	n/a	0	0	-2.317708e-01
157.015800	0.832951	dec_choice	0.832951	16.000000	n/a	0	0	-2.317708e-01
157.015800	0.832951	dec_nonsocial_reject	0.832951	16.000000	n/a	0	0	1.208333e-01
157.015800	0.832951	dec_reject	0.832951	16.000000	n/a	0	0	1.054688e-01
157.015800	0.832951	dec_nonsocial_low	0.832951	16.000000	n/a	0	-2.317708e-01	-2.317708e-01
157.015800	0.832951	dec_nonsocial_reject_low	0.832951	16.000000	n/a	4	1.054688e-01	-1.445312e-01
166.282030	1.100728	dec_social_choice	1.100728	32.000000	n/a	16	2.682292e-01	2.682292e-01
166.282030	1.100728	dec_choice	1.100728	32.000000	n/a	16	2.682292e-01	2.682292e-01
166.282030	1.100728	dec_social_accept	1.100728	32.000000	n/a	16	9.722222e-02	9.722222e-02
166.282030	1.100728	dec_accept	1.100728	32.000000	n/a	16	1.000000e-01	1.000000e-01
166.282030	1.100728	dec_social_accept_high	1.100728	32.000000	n/a	16	2.682292e-01	2.682292e-01
173.933140	1.332952	dec_nonsocial_choice	1.332952	32.000000	n/a	8	1.822917e-02	1.822917e-02
173.933140	1.332952	dec_choice	1.332952	32.000000	n/a	8	1.822917e-02	1.822917e-02
173.933140	1.332952	dec_nonsocial_accept	1.332952	32.000000	n/a	8	-1.527778e-01	-1.527778e-01
173.933140	1.332952	dec_accept	1.332952	32.000000	n/a	8	-1.562500e-01	-1.562500e-01
173.933140	1.332952	dec_nonsocial_accept_high	1.332952	32.000000	n/a	8	-1.500000e-01	-1.500000e-01
180.765410	1.116515	dec_social_choice	1.116515	16.000000	n/a	0	0	-2.317708e-01
180.765410	1.116515	dec_choice	1.116515	16.000000	n/a	0	0	-2.317708e-01
180.765410	1.116515	dec_social_reject	1.116515	16.000000	n/a	0	0	-4.166667e-03
180.765410	1.116515	dec_reject	1.116515	16.000000	n/a	0	0	1.339286e-02
180.765410	1.116515	dec_social_reject_low	1.116515	16.000000	n/a	2	-1.067708e-01	-2.317708e-01
190.016050	0.983676	dec_nonsocial_choice	0.983676	32.000000	n/a	0	0	-2.317708e-01
190.016050	0.983676	dec_choice	0.983676	32.000000	n/a	0	0	-2.317708e-01
190.016050	0.983676	dec_nonsocial_reject	0.983676	32.000000	n/a	0	0	-3.541667e-02
190.016050	0.983676	dec_reject	0.983676	32.000000	n/a	0	0	-5.078125e-02
190.016050	0.983676	dec_nonsocial_low	0.983676	32.000000	n/a	0	-2.317708e-01	-2.317708e-01
190.016050	0.983676	dec_nonsocial_reject_low	0.983676	32.000000	n/a	3	-5.078125e-02	-1.445312e-01
196.849240	0.982806	dec_social_choice	0.982806	32.000000	n/a	0	0	-2.317708e-01
196.849240	0.982806	dec_choice	0.982806	32.000000	n/a	0	0	-2.317708e-01
196.849240	0.982806	dec_social_reject	0.982806	32.000000	n/a	0	0	-6.666667e-02
196.849240	0.982806	dec_reject	0.982806	32.000000	n/a	0	0	-4.910714e-02
196.849240	0.982806	dec_social_low	0.982806	32.000000	n/a	0	-2.317708e-01	-2.317708e-01
196.849240	0.982806	dec_social_reject_low	0.982806	32.000000	n/a	2	-1.692708e-01	-2.317708e-01
203.683060	1.149992	dec_nonsocial_choice	1.149992	16.000000	n/a	0	0	-2.317708e-01
203.683060	1.149992	dec_choice	1.149992	16.000000	n/a	0	0	-2.317708e-01
203.683060	1.149992	dec_nonsocial_reject	1.149992	16.000000	n/a	0	0	-6.666667e-02
203.683060	1.149992	dec_reject	1.149992	16.000000	n/a	0	0	-8.203125e-02
203.683060	1.149992	dec_nonsocial_reject_low	1.149992	16.000000	n/a	1	-4.910714e-02	-1.116071e-01
211.332060	0.917271	dec_social_choice	0.917271	32.000000	n/a	0	0	-2.317708e-01
211.332060	0.917271	dec_choice	0.917271	32.000000	n/a	0	0	-2.317708e-01
211.332060	0.917271	dec_social_reject	0.917271	32.000000	n/a	0	0	-3.541667e-02
211.332060	0.917271	dec_reject	0.917271	32.000000	n/a	0	0	-1.785714e-02
211.332060	0.917271	dec_social_low	0.917271	32.000000	n/a	0	-2.317708e-01	-2.317708e-01
211.332060	0.917271	dec_social_reject_low	0.917271	32.000000	n/a	3	-1.380208e-01	-2.317708e-01
218.166050	0.933734	dec_nonsocial_choice	0.933734	32.000000	n/a	0	0	-2.317708e-01
218.166050	0.933734	dec_choice	0.933734	32.000000	n/a	0	0	-2.317708e-01
218.166050	0.933734	dec_nonsocial_reject	0.933734	32.000000	n/a	0	0	-6.666667e-02
218.166050	0.933734	dec_reject	0.933734	32.000000	n/a	0	0	-8.203125e-02
218.166050	0.933734	dec_nonsocial_reject_low	0.933734	32.000000	n/a	2	-4.910714e-02	-1.116071e-01
225.815160	1.150951	dec_social_choice	1.150951	16.000000	n/a	8	2.682292e-01	2.682292e-01
225.815160	1.150951	dec_choice	1.150951	16.000000	n/a	8	2.682292e-01	2.682292e-01
225.815160	1.150951	dec_social_accept	1.150951	16.000000	n/a	8	9.722222e-02	9.722222e-02
225.815160	1.150951	dec_accept	1.150951	16.000000	n/a	8	1.000000e-01	1.000000e-01
225.815160	1.150951	dec_social_accept_high	1.150951	16.000000	n/a	8	2.682292e-01	2.682292e-01
235.066620	1.465910	dec_social_choice	1.465910	32.000000	n/a	0	0	-2.317708e-01
235.066620	1.465910	dec_choice	1.465910	32.000000	n/a	0	0	-2.317708e-01
235.066620	1.465910	dec_social_reject	1.465910	32.000000	n/a	0	0	-3.541667e-02
235.066620	1.465910	dec_reject	1.465910	32.000000	n/a	0	0	-1.785714e-02
235.066620	1.465910	dec_social_low	1.465910	32.000000	n/a	0	-2.317708e-01	-2.317708e-01
235.066620	1.465910	dec_social_reject_low	1.465910	32.000000	n/a	3	-1.380208e-01	-2.317708e-01
241.899460	1.116419	dec_social_choice	1.116419	16.000000	n/a	0	0	-2.317708e-01
241.899460	1.116419	dec_choice	1.116419	16.000000	n/a	0	0	-2.317708e-01
241.899460	1.116419	dec_social_reject	1.116419	16.000000	n/a	0	0	-4.166667e-03
241.899460	1.116419	dec_reject	1.116419	16.000000	n/a	0	0	1.339286e-02
241.899460	1.116419	dec_social_low	1.116419	16.000000	n/a	0	-2.317708e-01	-2.317708e-01
241.899460	1.116419	dec_social_reject_low	1.116419	16.000000	n/a	2	-1.067708e-01	-2.317708e-01
248.733050	1.415838	dec_nonsocial_choice	1.415838	32.000000	n/a	0	0	-2.317708e-01
248.733050	1.415838	dec_choice	1.415838	32.000000	n/a	0	0	-2.317708e-01
248.733050	1.415838	dec_nonsocial_reject	1.415838	32.000000	n/a	0	0	-6.666667e-02
248.733050	1.415838	dec_reject	1.415838	32.000000	n/a	0	0	-8.203125e-02
248.733050	1.415838	dec_nonsocial_low	1.415838	32.000000	n/a	0	-2.317708e-01	-2.317708e-01
248.733050	1.415838	dec_nonsocial_reject_low	1.415838	32.000000	n/a	2	-8.203125e-02	-1.445312e-01
256.383180	0.999804	dec_social_choice	0.999804	16.000000	n/a	0	0	-2.317708e-01
256.383180	0.999804	dec_choice	0.999804	16.000000	n/a	0	0	-2.317708e-01
256.383180	0.999804	dec_social_reject	0.999804	16.000000	n/a	0	0	-4.166667e-03
256.383180	0.999804	dec_reject	0.999804	16.000000	n/a	0	0	1.339286e-02
256.383180	0.999804	dec_social_reject_low	0.999804	16.000000	n/a	2	-1.067708e-01	-2.317708e-01
263.217130	1.181581	dec_nonsocial_choice	1.181581	16.000000	n/a	0	0	-2.317708e-01
263.217130	1.181581	dec_choice	1.181581	16.000000	n/a	0	0	-2.317708e-01
263.217130	1.181581	dec_nonsocial_reject	1.181581	16.000000	n/a	0	0	1.208333e-01
263.217130	1.181581	dec_reject	1.181581	16.000000	n/a	0	0	1.054688e-01
263.217130	1.181581	dec_nonsocial_low	1.181581	16.000000	n/a	0	-2.317708e-01	-2.317708e-01
263.217130	1.181581	dec_nonsocial_reject_low	1.181581	16.000000	n/a	4	1.054688e-01	-1.445312e-01
270.049770	1.049534	dec_nonsocial_choice	1.049534	16.000000	n/a	0	0	-2.317708e-01
270.049770	1.049534	dec_choice	1.049534	16.000000	n/a	0	0	-2.317708e-01
270.049770	1.049534	dec_nonsocial_reject	1.049534	16.000000	n/a	0	0	-4.166667e-03
270.049770	1.049534	dec_reject	1.049534	16.000000	n/a	0	0	-1.953125e-02
270.049770	1.049534	dec_nonsocial_reject_low	1.049534	16.000000	n/a	2	1.339286e-02	-1.116071e-01
276.882450	0.800385	dec_nonsocial_choice	0.800385	16.000000	n/a	8	2.682292e-01	2.682292e-01
276.882450	0.800385	dec_choice	0.800385	16.000000	n/a	8	2.682292e-01	2.682292e-01
276.882450	0.800385	dec_nonsocial_accept	0.800385	16.000000	n/a	8	9.722222e-02	9.722222e-02
276.882450	0.800385	dec_accept	0.800385	16.000000	n/a	8	9.375000e-02	9.375000e-02
276.882450	0.800385	dec_nonsocial_accept_high	0.800385	16.000000	n/a	8	1.000000e-01	1.000000e-01
283.715640	0.950241	dec_social_choice	0.950241	16.000000	n/a	8	2.682292e-01	2.682292e-01
283.715640	0.950241	dec_choice	0.950241	16.000000	n/a	8	2.682292e-01	2.682292e-01
283.715640	0.950241	dec_social_accept	0.950241	16.000000	n/a	8	9.722222e-02	9.722222e-02
283.715640	0.950241	dec_accept	0.950241	16.000000	n/a	8	1.000000e-01	1.000000e-01
283.715640	0.950241	dec_social_high	0.950241	16.000000	n/a	8	2.682292e-01	2.682292e-01
283.715640	0.950241	dec_social_accept_high	0.950241	16.000000	n/a	8	2.682292e-01	2.682292e-01
290.549380	0.999874	dec_nonsocial_choice	0.999874	16.000000	n/a	0	0	-2.317708e-01
290.549380	0.999874	dec_choice	0.999874	16.000000	n/a	0	0	-2.317708e-01
290.549380	0.999874	dec_nonsocial_reject	0.999874	16.000000	n/a	0	0	1.208333e-01
290.549380	0.999874	dec_reject	0.999874	16.000000	n/a	0	0	1.054688e-01
290.549380	0.999874	dec_nonsocial_low	0.999874	16.000000	n/a	0	-2.317708e-01	-2.317708e-01
290.549380	0.999874	dec_nonsocial_reject_low	0.999874	16.000000	n/a	4	1.054688e-01	-1.445312e-01
298.198270	0.850884	dec_social_choice	0.850884	16.000000	n/a	0	0	-2.317708e-01
298.198270	0.850884	dec_choice	0.850884	16.000000	n/a	0	0	-2.317708e-01
298.198270	0.850884	dec_social_reject	0.850884	16.000000	n/a	0	0	-4.166667e-03
298.198270	0.850884	dec_reject	0.850884	16.000000	n/a	0	0	1.339286e-02
298.198270	0.850884	dec_social_reject_low	0.850884	16.000000	n/a	2	-1.067708e-01	-2.317708e-01
305.848970	1.033613	dec_social_choice	1.033613	32.000000	n/a	8	1.822917e-02	1.822917e-02
305.848970	1.033613	dec_choice	1.033613	32.000000	n/a	8	1.822917e-02	1.822917e-02
305.848970	1.033613	dec_social_accept	1.033613	32.000000	n/a	8	-1.527778e-01	-1.527778e-01
305.848970	1.033613	dec_accept	1.033613	32.000000	n/a	8	-1.500000e-01	-1.500000e-01
305.848970	1.033613	dec_social_high	1.033613	32.000000	n/a	8	1.822917e-02	1.822917e-02
305.848970	1.033613	dec_social_accept_high	1.033613	32.000000	n/a	8	1.822917e-02	1.822917e-02
312.682220	1.417113	dec_social_choice	1.417113	16.000000	n/a	0	0	-2.317708e-01
312.682220	1.417113	dec_choice	1.417113	16.000000	n/a	0	0	-2.317708e-01
312.682220	1.417113	dec_social_reject	1.417113	16.000000	n/a	0	0	1.208333e-01
312.682220	1.417113	dec_reject	1.417113	16.000000	n/a	0	0	1.383929e-01
312.682220	1.417113	dec_social_reject_low	1.417113	16.000000	n/a	4	1.822917e-02	-2.317708e-01
319.516140	1.249620	dec_social_choice	1.249620	32.000000	n/a	8	1.822917e-02	1.822917e-02
319.516140	1.249620	dec_choice	1.249620	32.000000	n/a	8	1.822917e-02	1.822917e-02
319.516140	1.249620	dec_social_accept	1.249620	32.000000	n/a	8	-1.527778e-01	-1.527778e-01
319.516140	1.249620	dec_accept	1.249620	32.000000	n/a	8	-1.500000e-01	-1.500000e-01
319.516140	1.249620	dec_social_accept_high	1.249620	32.000000	n/a	8	1.822917e-02	1.822917e-02
326.350100	1.231939	dec_nonsocial_choice	1.231939	16.000000	n/a	0	0	-2.317708e-01
326.350100	1.231939	dec_choice	1.231939	16.000000	n/a	0	0	-2.317708e-01
326.350100	1.231939	dec_nonsocial_reject	1.231939	16.000000	n/a	0	0	-4.166667e-03
326.350100	1.231939	dec_reject	1.231939	16.000000	n/a	0	0	-1.953125e-02
326.350100	1.231939	dec_nonsocial_reject_low	1.231939	16.000000	n/a	2	1.339286e-02	-1.116071e-01
333.181670	1.234263	dec_social_choice	1.234263	32.000000	n/a	8	1.822917e-02	1.822917e-02
333.181670	1.234263	dec_choice	1.234263	32.000000	n/a	8	1.822917e-02	1.822917e-02
333.181670	1.234263	dec_social_accept	1.234263	32.000000	n/a	8	-1.527778e-01	-1.527778e-01
333.181670	1.234263	dec_accept	1.234263	32.000000	n/a	8	-1.500000e-01	-1.500000e-01
333.181670	1.234263	dec_social_accept_high	1.234263	32.000000	n/a	8	1.822917e-02	1.822917e-02
340.833200	0.982451	dec_nonsocial_choice	0.982451	32.000000	n/a	8	1.822917e-02	1.822917e-02
340.833200	0.982451	dec_choice	0.982451	32.000000	n/a	8	1.822917e-02	1.822917e-02
340.833200	0.982451	dec_nonsocial_accept	0.982451	32.000000	n/a	8	-1.527778e-01	-1.527778e-01
340.833200	0.982451	dec_accept	0.982451	32.000000	n/a	8	-1.562500e-01	-1.562500e-01
340.833200	0.982451	dec_nonsocial_accept_high	0.982451	32.000000	n/a	8	-1.500000e-01	-1.500000e-01
347.682700	1.033423	dec_nonsocial_choice	1.033423	16.000000	n/a	0	0	-2.317708e-01
347.682700	1.033423	dec_choice	1.033423	16.000000	n/a	0	0	-2.317708e-01
347.682700	1.033423	dec_nonsocial_reject	1.033423	16.000000	n/a	0	0	-4.166667e-03
347.682700	1.033423	dec_reject	1.033423	16.000000	n/a	0	0	-1.953125e-02
347.682700	1.033423	dec_nonsocial_reject_low	1.033423	16.000000	n/a	2	1.339286e-02	-1.116071e-01
356.932370	0.916204	dec_nonsocial_choice	0.916204	32.000000	n/a	16	2.682292e-01	2.682292e-01
356.932370	0.916204	dec_choice	0.916204	32.000000	n/a	16	2.682292e-01	2.682292e-01
356.932370	0.916204	dec_nonsocial_accept	0.916204	32.000000	n/a	16	9.722222e-02	9.722222e-02
356.932370	0.916204	dec_accept	0.916204	32.000000	n/a	16	9.375000e-02	9.375000e-02
356.932370	0.916204	dec_nonsocial_high	0.916204	32.000000	n/a	16	2.682292e-01	2.682292e-01
356.932370	0.916204	dec_nonsocial_accept_high	0.916204	32.000000	n/a	16	9.375000e-02	9.375000e-02
366.182160	1.200175	dec_nonsocial_choice	1.200175	32.000000	n/a	0	0	-2.317708e-01
366.182160	1.200175	dec_choice	1.200175	32.000000	n/a	0	0	-2.317708e-01
366.182160	1.200175	dec_nonsocial_reject	1.200175	32.000000	n/a	0	0	-6.666667e-02
366.182160	1.200175	dec_reject	1.200175	32.000000	n/a	0	0	-8.203125e-02
366.182160	1.200175	dec_nonsocial_low	1.200175	32.000000	n/a	0	-2.317708e-01	-2.317708e-01
366.182160	1.200175	dec_nonsocial_reject_low	1.200175	32.000000	n/a	2	-8.203125e-02	-1.445312e-01
373.016140	0.883010	dec_nonsocial_choice	0.883010	16.000000	n/a	8	2.682292e-01	2.682292e-01
373.016140	0.883010	dec_choice	0.883010	16.000000	n/a	8	2.682292e-01	2.682292e-01
373.016140	0.883010	dec_nonsocial_accept	0.883010	16.000000	n/a	8	9.722222e-02	9.722222e-02
373.016140	0.883010	dec_accept	0.883010	16.000000	n/a	8	9.375000e-02	9.375000e-02
373.016140	0.883010	dec_nonsocial_high	0.883010	16.000000	n/a	8	2.682292e-01	2.682292e-01
373.016140	0.883010	dec_nonsocial_accept_high	0.883010	16.000000	n/a	8	9.375000e-02	9.375000e-02
