onset	duration	trial_type	response_time	Endowment	Endowment_pmod	Decision	Decision_pmod	Offer_pmod
4.507960	2	cue_nonsocial	n/a	16	-6	n/a	n/a	n/a
4.507960	2	cue_nonsocial_low	n/a	16	-11	n/a	n/a	n/a
12.158186	2	cue_nonsocial	n/a	16	-6	n/a	n/a	n/a
12.158186	2	cue_nonsocial_low	n/a	16	-11	n/a	n/a	n/a
19.100048	2	cue_social	n/a	32	5	n/a	n/a	n/a
19.100048	2	cue_social_high	n/a	32	10	n/a	n/a	n/a
26.631460	2	cue_social	n/a	16	-11	n/a	n/a	n/a
26.631460	2	cue_social_low	n/a	16	-6	n/a	n/a	n/a
34.291910	2	cue_nonsocial	n/a	16	-6	n/a	n/a	n/a
34.291910	2	cue_nonsocial_low	n/a	16	-11	n/a	n/a	n/a
43.649837	2	cue_social	n/a	32	5	n/a	n/a	n/a
43.649837	2	cue_social_high	n/a	32	10	n/a	n/a	n/a
50.374770	2	cue_nonsocial	n/a	16	-6	n/a	n/a	n/a
50.374770	2	cue_nonsocial_low	n/a	16	-11	n/a	n/a	n/a
57.208460	2	cue_nonsocial	n/a	16	-6	n/a	n/a	n/a
57.208460	2	cue_nonsocial_low	n/a	16	-11	n/a	n/a	n/a
64.134140	2	cue_social	n/a	32	5	n/a	n/a	n/a
64.134140	2	cue_social_high	n/a	32	10	n/a	n/a	n/a
71.796000	2	cue_social	n/a	16	-11	n/a	n/a	n/a
71.796000	2	cue_social_low	n/a	16	-6	n/a	n/a	n/a
78.632240	2	cue_social	n/a	32	5	n/a	n/a	n/a
78.632240	2	cue_social_high	n/a	32	10	n/a	n/a	n/a
86.175740	2	cue_nonsocial	n/a	32	10	n/a	n/a	n/a
86.175740	2	cue_nonsocial_high	n/a	32	5	n/a	n/a	n/a
98.658730	2	cue_nonsocial	n/a	16	-6	n/a	n/a	n/a
98.658730	2	cue_nonsocial_low	n/a	16	-11	n/a	n/a	n/a
107.923480	2	cue_social	n/a	32	5	n/a	n/a	n/a
107.923480	2	cue_social_high	n/a	32	10	n/a	n/a	n/a
114.838580	2	cue_social	n/a	32	5	n/a	n/a	n/a
114.838580	2	cue_social_high	n/a	32	10	n/a	n/a	n/a
122.496370	2	cue_social	n/a	16	-11	n/a	n/a	n/a
122.496370	2	cue_social_low	n/a	16	-6	n/a	n/a	n/a
131.680570	2	cue_social	n/a	32	5	n/a	n/a	n/a
131.680570	2	cue_social_high	n/a	32	10	n/a	n/a	n/a
138.475080	2	cue_nonsocial	n/a	32	10	n/a	n/a	n/a
138.475080	2	cue_nonsocial_high	n/a	32	5	n/a	n/a	n/a
146.107850	2	cue_nonsocial	n/a	16	-6	n/a	n/a	n/a
146.107850	2	cue_nonsocial_low	n/a	16	-11	n/a	n/a	n/a
152.941400	2	cue_nonsocial	n/a	16	-6	n/a	n/a	n/a
152.941400	2	cue_nonsocial_low	n/a	16	-11	n/a	n/a	n/a
160.674300	2	cue_social	n/a	16	-11	n/a	n/a	n/a
160.674300	2	cue_social_low	n/a	16	-6	n/a	n/a	n/a
167.425050	2	cue_nonsocial	n/a	16	-6	n/a	n/a	n/a
167.425050	2	cue_nonsocial_low	n/a	16	-11	n/a	n/a	n/a
176.789870	2	cue_social	n/a	16	-11	n/a	n/a	n/a
176.789870	2	cue_social_low	n/a	16	-6	n/a	n/a	n/a
184.341900	2	cue_nonsocial	n/a	16	-6	n/a	n/a	n/a
184.341900	2	cue_nonsocial_low	n/a	16	-11	n/a	n/a	n/a
191.175320	2	cue_nonsocial	n/a	16	-6	n/a	n/a	n/a
191.175320	2	cue_nonsocial_low	n/a	16	-11	n/a	n/a	n/a
198.097240	2	cue_social	n/a	32	5	n/a	n/a	n/a
198.097240	2	cue_social_high	n/a	32	10	n/a	n/a	n/a
204.841670	2	cue_nonsocial	n/a	16	-6	n/a	n/a	n/a
204.841670	2	cue_nonsocial_low	n/a	16	-11	n/a	n/a	n/a
212.491200	2	cue_nonsocial	n/a	32	10	n/a	n/a	n/a
212.491200	2	cue_nonsocial_high	n/a	32	5	n/a	n/a	n/a
219.329820	2	cue_social	n/a	16	-11	n/a	n/a	n/a
219.329820	2	cue_social_low	n/a	16	-6	n/a	n/a	n/a
226.974690	2	cue_nonsocial	n/a	16	-6	n/a	n/a	n/a
226.974690	2	cue_nonsocial_low	n/a	16	-11	n/a	n/a	n/a
236.330800	2	cue_social	n/a	32	5	n/a	n/a	n/a
236.330800	2	cue_social_high	n/a	32	10	n/a	n/a	n/a
243.958000	2	cue_social	n/a	32	5	n/a	n/a	n/a
243.958000	2	cue_social_high	n/a	32	10	n/a	n/a	n/a
253.218290	2	cue_social	n/a	32	5	n/a	n/a	n/a
253.218290	2	cue_social_high	n/a	32	10	n/a	n/a	n/a
259.958070	2	cue_nonsocial	n/a	32	10	n/a	n/a	n/a
259.958070	2	cue_nonsocial_high	n/a	32	5	n/a	n/a	n/a
266.790950	2	cue_nonsocial	n/a	16	-6	n/a	n/a	n/a
266.790950	2	cue_nonsocial_low	n/a	16	-11	n/a	n/a	n/a
277.658600	2	cue_nonsocial	n/a	32	10	n/a	n/a	n/a
277.658600	2	cue_nonsocial_high	n/a	32	5	n/a	n/a	n/a
284.570530	2	cue_social	n/a	32	5	n/a	n/a	n/a
284.570530	2	cue_social_high	n/a	32	10	n/a	n/a	n/a
291.354280	2	cue_social	n/a	16	-11	n/a	n/a	n/a
291.354280	2	cue_social_low	n/a	16	-6	n/a	n/a	n/a
298.260620	2	cue_social	n/a	32	5	n/a	n/a	n/a
298.260620	2	cue_social_high	n/a	32	10	n/a	n/a	n/a
304.991600	2	cue_nonsocial	n/a	16	-6	n/a	n/a	n/a
304.991600	2	cue_nonsocial_low	n/a	16	-11	n/a	n/a	n/a
315.938000	2	cue_social	n/a	32	5	n/a	n/a	n/a
315.938000	2	cue_social_high	n/a	32	10	n/a	n/a	n/a
322.781600	2	cue_social	n/a	32	5	n/a	n/a	n/a
322.781600	2	cue_social_high	n/a	32	10	n/a	n/a	n/a
329.524200	2	cue_nonsocial	n/a	32	10	n/a	n/a	n/a
329.524200	2	cue_nonsocial_high	n/a	32	5	n/a	n/a	n/a
338.774600	2	cue_nonsocial	n/a	32	10	n/a	n/a	n/a
338.774600	2	cue_nonsocial_high	n/a	32	5	n/a	n/a	n/a
345.677200	2	cue_social	n/a	32	5	n/a	n/a	n/a
345.677200	2	cue_social_high	n/a	32	10	n/a	n/a	n/a
356.607180	2	cue_social	n/a	16	-11	n/a	n/a	n/a
356.607180	2	cue_social_low	n/a	16	-6	n/a	n/a	n/a
363.308380	2	cue_nonsocial	n/a	32	10	n/a	n/a	n/a
363.308380	2	cue_nonsocial_high	n/a	32	5	n/a	n/a	n/a
370.957860	2	cue_nonsocial	n/a	32	10	n/a	n/a	n/a
370.957860	2	cue_nonsocial_high	n/a	32	5	n/a	n/a	n/a
6.512871	1.650957	dec_nonsocial_choice	1.650957	16.000000	n/a	0	0	-2.311198e-01
6.512871	1.650957	dec_choice	1.650957	16.000000	n/a	0	0	-2.317708e-01
6.512871	1.650957	dec_nonsocial_reject	1.650957	16.000000	n/a	0	0	3.255208e-02
6.512871	1.650957	dec_reject	1.650957	16.000000	n/a	0	0	2.403846e-02
6.512871	1.650957	dec_nonsocial_reject_low	1.650957	16.000000	n/a	2	4.261364e-02	-8.238636e-02
14.163902	0.999799	dec_nonsocial_choice	0.999799	16.000000	n/a	8	2.688802e-01	2.688802e-01
14.163902	0.999799	dec_choice	0.999799	16.000000	n/a	8	2.682292e-01	2.682292e-01
14.163902	0.999799	dec_nonsocial_accept	0.999799	16.000000	n/a	8	1.302083e-01	1.302083e-01
14.163902	0.999799	dec_accept	0.999799	16.000000	n/a	8	1.136364e-01	1.136364e-01
14.163902	0.999799	dec_nonsocial_high	0.999799	16.000000	n/a	8	2.682292e-01	2.682292e-01
14.163902	0.999799	dec_nonsocial_accept_high	0.999799	16.000000	n/a	8	1.136364e-01	1.136364e-01
20.997072	1.315986	dec_social_choice	1.315986	32.000000	n/a	0	0	-2.311198e-01
20.997072	1.315986	dec_choice	1.315986	32.000000	n/a	0	0	-2.304688e-01
20.997072	1.315986	dec_social_reject	1.315986	32.000000	n/a	0	0	1.302083e-03
20.997072	1.315986	dec_reject	1.315986	32.000000	n/a	0	0	1.136364e-02
20.997072	1.315986	dec_social_low	1.315986	32.000000	n/a	0	-2.304688e-01	-2.304688e-01
20.997072	1.315986	dec_social_reject_low	1.315986	32.000000	n/a	3	-1.367188e-01	-2.304688e-01
28.646961	2.649739	dec_social_choice	2.649739	16.000000	n/a	0	0	-2.311198e-01
28.646961	2.649739	dec_choice	2.649739	16.000000	n/a	0	0	-2.304688e-01
28.646961	2.649739	dec_social_reject	2.649739	16.000000	n/a	0	0	-2.994792e-02
28.646961	2.649739	dec_reject	2.649739	16.000000	n/a	0	0	-1.988636e-02
28.646961	2.649739	dec_social_reject_low	2.649739	16.000000	n/a	1	-1.679688e-01	-2.304688e-01
36.297318	1.399584	dec_nonsocial_choice	1.399584	16.000000	n/a	8	2.688802e-01	2.688802e-01
36.297318	1.399584	dec_choice	1.399584	16.000000	n/a	8	2.682292e-01	2.682292e-01
36.297318	1.399584	dec_nonsocial_accept	1.399584	16.000000	n/a	8	1.302083e-01	1.302083e-01
36.297318	1.399584	dec_accept	1.399584	16.000000	n/a	8	1.136364e-01	1.136364e-01
36.297318	1.399584	dec_nonsocial_accept_high	1.399584	16.000000	n/a	8	1.442308e-01	1.442308e-01
45.546474	1.250275	dec_social_choice	1.250275	32.000000	n/a	16	2.688802e-01	2.688802e-01
45.546474	1.250275	dec_choice	1.250275	32.000000	n/a	16	2.695312e-01	2.695312e-01
45.546474	1.250275	dec_social_accept	1.250275	32.000000	n/a	16	1.302083e-01	1.302083e-01
45.546474	1.250275	dec_accept	1.250275	32.000000	n/a	16	1.442308e-01	1.442308e-01
45.546474	1.250275	dec_social_high	1.250275	32.000000	n/a	16	2.695312e-01	2.695312e-01
45.546474	1.250275	dec_social_accept_high	1.250275	32.000000	n/a	16	2.695312e-01	2.695312e-01
52.381115	1.749431	dec_nonsocial_choice	1.749431	16.000000	n/a	0	0	-2.311198e-01
52.381115	1.749431	dec_choice	1.749431	16.000000	n/a	0	0	-2.317708e-01
52.381115	1.749431	dec_nonsocial_reject	1.749431	16.000000	n/a	0	0	1.575521e-01
52.381115	1.749431	dec_reject	1.749431	16.000000	n/a	0	0	1.490385e-01
52.381115	1.749431	dec_nonsocial_reject_low	1.749431	16.000000	n/a	4	1.676136e-01	-8.238636e-02
59.213900	1.283070	dec_nonsocial_choice	1.283070	16.000000	n/a	0	0	-2.311198e-01
59.213900	1.283070	dec_choice	1.283070	16.000000	n/a	0	0	-2.317708e-01
59.213900	1.283070	dec_nonsocial_reject	1.283070	16.000000	n/a	0	0	-2.994792e-02
59.213900	1.283070	dec_reject	1.283070	16.000000	n/a	0	0	-3.846154e-02
59.213900	1.283070	dec_nonsocial_reject_low	1.283070	16.000000	n/a	1	-1.988636e-02	-8.238636e-02
66.047050	0.833139	dec_social_choice	0.833139	32.000000	n/a	16	2.688802e-01	2.688802e-01
66.047050	0.833139	dec_choice	0.833139	32.000000	n/a	16	2.695312e-01	2.695312e-01
66.047050	0.833139	dec_social_accept	0.833139	32.000000	n/a	16	1.302083e-01	1.302083e-01
66.047050	0.833139	dec_accept	0.833139	32.000000	n/a	16	1.442308e-01	1.442308e-01
66.047050	0.833139	dec_social_accept_high	0.833139	32.000000	n/a	16	2.695312e-01	2.695312e-01
73.696990	1.966730	dec_social_choice	1.966730	16.000000	n/a	0	0	-2.311198e-01
73.696990	1.966730	dec_choice	1.966730	16.000000	n/a	0	0	-2.304688e-01
73.696990	1.966730	dec_social_reject	1.966730	16.000000	n/a	0	0	-2.994792e-02
73.696990	1.966730	dec_reject	1.966730	16.000000	n/a	0	0	-1.988636e-02
73.696990	1.966730	dec_social_reject_low	1.966730	16.000000	n/a	1	-1.679688e-01	-2.304688e-01
80.530580	1.532952	dec_social_choice	1.532952	32.000000	n/a	0	0	-2.311198e-01
80.530580	1.532952	dec_choice	1.532952	32.000000	n/a	0	0	-2.304688e-01
80.530580	1.532952	dec_social_reject	1.532952	32.000000	n/a	0	0	1.302083e-03
80.530580	1.532952	dec_reject	1.532952	32.000000	n/a	0	0	1.136364e-02
80.530580	1.532952	dec_social_low	1.532952	32.000000	n/a	0	-2.304688e-01	-2.304688e-01
80.530580	1.532952	dec_social_reject_low	1.532952	32.000000	n/a	3	-1.367188e-01	-2.304688e-01
88.181000	1.065863	dec_nonsocial_choice	1.065863	32.000000	n/a	0	0	-2.311198e-01
88.181000	1.065863	dec_choice	1.065863	32.000000	n/a	0	0	-2.317708e-01
88.181000	1.065863	dec_nonsocial_reject	1.065863	32.000000	n/a	0	0	1.302083e-03
88.181000	1.065863	dec_reject	1.065863	32.000000	n/a	0	0	-7.211538e-03
88.181000	1.065863	dec_nonsocial_reject_low	1.065863	32.000000	n/a	3	1.136364e-02	-8.238636e-02
100.662980	0.883702	dec_nonsocial_choice	0.883702	16.000000	n/a	0	0	-2.311198e-01
100.662980	0.883702	dec_choice	0.883702	16.000000	n/a	0	0	-2.317708e-01
100.662980	0.883702	dec_nonsocial_reject	0.883702	16.000000	n/a	0	0	-2.994792e-02
100.662980	0.883702	dec_reject	0.883702	16.000000	n/a	0	0	-3.846154e-02
100.662980	0.883702	dec_nonsocial_low	0.883702	16.000000	n/a	0	-2.317708e-01	-2.317708e-01
100.662980	0.883702	dec_nonsocial_reject_low	0.883702	16.000000	n/a	1	-3.846154e-02	-1.009615e-01
109.913925	1.866185	dec_social_choice	1.866185	32.000000	n/a	8	1.888021e-02	1.888021e-02
109.913925	1.866185	dec_choice	1.866185	32.000000	n/a	8	1.953125e-02	1.953125e-02
109.913925	1.866185	dec_social_accept	1.866185	32.000000	n/a	8	-1.197917e-01	-1.197917e-01
109.913925	1.866185	dec_accept	1.866185	32.000000	n/a	8	-1.057692e-01	-1.057692e-01
109.913925	1.866185	dec_social_accept_high	1.866185	32.000000	n/a	8	1.953125e-02	1.953125e-02
116.747520	0.982987	dec_social_choice	0.982987	32.000000	n/a	8	1.888021e-02	1.888021e-02
116.747520	0.982987	dec_choice	0.982987	32.000000	n/a	8	1.953125e-02	1.953125e-02
116.747520	0.982987	dec_social_accept	0.982987	32.000000	n/a	8	-1.197917e-01	-1.197917e-01
116.747520	0.982987	dec_accept	0.982987	32.000000	n/a	8	-1.057692e-01	-1.057692e-01
116.747520	0.982987	dec_social_accept_high	0.982987	32.000000	n/a	8	1.953125e-02	1.953125e-02
124.397930	1.849328	dec_social_choice	1.849328	16.000000	n/a	0	0	-2.311198e-01
124.397930	1.849328	dec_choice	1.849328	16.000000	n/a	0	0	-2.304688e-01
124.397930	1.849328	dec_social_reject	1.849328	16.000000	n/a	0	0	3.255208e-02
124.397930	1.849328	dec_reject	1.849328	16.000000	n/a	0	0	4.261364e-02
124.397930	1.849328	dec_social_reject_low	1.849328	16.000000	n/a	2	-1.054688e-01	-2.304688e-01
133.647860	1.882641	dec_social_choice	1.882641	32.000000	n/a	8	1.888021e-02	1.888021e-02
133.647860	1.882641	dec_choice	1.882641	32.000000	n/a	8	1.953125e-02	1.953125e-02
133.647860	1.882641	dec_social_accept	1.882641	32.000000	n/a	8	-1.197917e-01	-1.197917e-01
133.647860	1.882641	dec_accept	1.882641	32.000000	n/a	8	-1.057692e-01	-1.057692e-01
133.647860	1.882641	dec_social_high	1.882641	32.000000	n/a	8	1.953125e-02	1.953125e-02
133.647860	1.882641	dec_social_accept_high	1.882641	32.000000	n/a	8	1.953125e-02	1.953125e-02
140.480090	1.767074	dec_nonsocial_choice	1.767074	32.000000	n/a	8	1.888021e-02	1.888021e-02
140.480090	1.767074	dec_choice	1.767074	32.000000	n/a	8	1.822917e-02	1.822917e-02
140.480090	1.767074	dec_nonsocial_accept	1.767074	32.000000	n/a	8	-1.197917e-01	-1.197917e-01
140.480090	1.767074	dec_accept	1.767074	32.000000	n/a	8	-1.363636e-01	-1.363636e-01
140.480090	1.767074	dec_nonsocial_accept_high	1.767074	32.000000	n/a	8	-1.057692e-01	-1.057692e-01
148.114040	1.065576	dec_nonsocial_choice	1.065576	16.000000	n/a	0	0	-2.311198e-01
148.114040	1.065576	dec_choice	1.065576	16.000000	n/a	0	0	-2.317708e-01
148.114040	1.065576	dec_nonsocial_reject	1.065576	16.000000	n/a	0	0	-2.994792e-02
148.114040	1.065576	dec_reject	1.065576	16.000000	n/a	0	0	-3.846154e-02
148.114040	1.065576	dec_nonsocial_reject_low	1.065576	16.000000	n/a	1	-1.988636e-02	-8.238636e-02
154.946350	1.250499	dec_nonsocial_choice	1.250499	16.000000	n/a	0	0	-2.311198e-01
154.946350	1.250499	dec_choice	1.250499	16.000000	n/a	0	0	-2.317708e-01
154.946350	1.250499	dec_nonsocial_reject	1.250499	16.000000	n/a	0	0	-2.994792e-02
154.946350	1.250499	dec_reject	1.250499	16.000000	n/a	0	0	-3.846154e-02
154.946350	1.250499	dec_nonsocial_low	1.250499	16.000000	n/a	0	-2.317708e-01	-2.317708e-01
154.946350	1.250499	dec_nonsocial_reject_low	1.250499	16.000000	n/a	1	-3.846154e-02	-1.009615e-01
162.595980	0.983964	dec_social_choice	0.983964	16.000000	n/a	0	0	-2.311198e-01
162.595980	0.983964	dec_choice	0.983964	16.000000	n/a	0	0	-2.304688e-01
162.595980	0.983964	dec_social_reject	0.983964	16.000000	n/a	0	0	-2.994792e-02
162.595980	0.983964	dec_reject	0.983964	16.000000	n/a	0	0	-1.988636e-02
162.595980	0.983964	dec_social_low	0.983964	16.000000	n/a	0	-2.304688e-01	-2.304688e-01
162.595980	0.983964	dec_social_reject_low	0.983964	16.000000	n/a	1	-1.679688e-01	-2.304688e-01
169.430500	1.632569	dec_nonsocial_choice	1.632569	16.000000	n/a	0	0	-2.311198e-01
169.430500	1.632569	dec_choice	1.632569	16.000000	n/a	0	0	-2.317708e-01
169.430500	1.632569	dec_nonsocial_reject	1.632569	16.000000	n/a	0	0	3.255208e-02
169.430500	1.632569	dec_reject	1.632569	16.000000	n/a	0	0	2.403846e-02
169.430500	1.632569	dec_nonsocial_low	1.632569	16.000000	n/a	0	-2.317708e-01	-2.317708e-01
169.430500	1.632569	dec_nonsocial_reject_low	1.632569	16.000000	n/a	2	2.403846e-02	-1.009615e-01
178.697590	1.432683	dec_social_choice	1.432683	16.000000	n/a	4	1.888021e-02	1.888021e-02
178.697590	1.432683	dec_choice	1.432683	16.000000	n/a	4	1.953125e-02	1.953125e-02
178.697590	1.432683	dec_social_accept	1.432683	16.000000	n/a	4	-1.197917e-01	-1.197917e-01
178.697590	1.432683	dec_accept	1.432683	16.000000	n/a	4	-1.057692e-01	-1.057692e-01
178.697590	1.432683	dec_social_high	1.432683	16.000000	n/a	4	1.953125e-02	1.953125e-02
178.697590	1.432683	dec_social_accept_high	1.432683	16.000000	n/a	4	1.953125e-02	1.953125e-02
186.347100	0.949708	dec_nonsocial_choice	0.949708	16.000000	n/a	8	2.688802e-01	2.688802e-01
186.347100	0.949708	dec_choice	0.949708	16.000000	n/a	8	2.682292e-01	2.682292e-01
186.347100	0.949708	dec_nonsocial_accept	0.949708	16.000000	n/a	8	1.302083e-01	1.302083e-01
186.347100	0.949708	dec_accept	0.949708	16.000000	n/a	8	1.136364e-01	1.136364e-01
186.347100	0.949708	dec_nonsocial_high	0.949708	16.000000	n/a	8	2.682292e-01	2.682292e-01
186.347100	0.949708	dec_nonsocial_accept_high	0.949708	16.000000	n/a	8	1.136364e-01	1.136364e-01
193.180470	1.733029	dec_nonsocial_choice	1.733029	16.000000	n/a	8	2.688802e-01	2.688802e-01
193.180470	1.733029	dec_choice	1.733029	16.000000	n/a	8	2.682292e-01	2.682292e-01
193.180470	1.733029	dec_nonsocial_accept	1.733029	16.000000	n/a	8	1.302083e-01	1.302083e-01
193.180470	1.733029	dec_accept	1.733029	16.000000	n/a	8	1.136364e-01	1.136364e-01
193.180470	1.733029	dec_nonsocial_high	1.733029	16.000000	n/a	8	2.682292e-01	2.682292e-01
193.180470	1.733029	dec_nonsocial_accept_high	1.733029	16.000000	n/a	8	1.136364e-01	1.136364e-01
200.013380	0.833464	dec_social_choice	0.833464	32.000000	n/a	16	2.688802e-01	2.688802e-01
200.013380	0.833464	dec_choice	0.833464	32.000000	n/a	16	2.695312e-01	2.695312e-01
200.013380	0.833464	dec_social_accept	0.833464	32.000000	n/a	16	1.302083e-01	1.302083e-01
200.013380	0.833464	dec_accept	0.833464	32.000000	n/a	16	1.442308e-01	1.442308e-01
200.013380	0.833464	dec_social_high	0.833464	32.000000	n/a	16	2.695312e-01	2.695312e-01
200.013380	0.833464	dec_social_accept_high	0.833464	32.000000	n/a	16	2.695312e-01	2.695312e-01
206.846940	1.050305	dec_nonsocial_choice	1.050305	16.000000	n/a	0	0	-2.311198e-01
206.846940	1.050305	dec_choice	1.050305	16.000000	n/a	0	0	-2.317708e-01
206.846940	1.050305	dec_nonsocial_reject	1.050305	16.000000	n/a	0	0	3.255208e-02
206.846940	1.050305	dec_reject	1.050305	16.000000	n/a	0	0	2.403846e-02
206.846940	1.050305	dec_nonsocial_low	1.050305	16.000000	n/a	0	-2.317708e-01	-2.317708e-01
206.846940	1.050305	dec_nonsocial_reject_low	1.050305	16.000000	n/a	2	2.403846e-02	-1.009615e-01
214.496290	0.866805	dec_nonsocial_choice	0.866805	32.000000	n/a	0	0	-2.311198e-01
214.496290	0.866805	dec_choice	0.866805	32.000000	n/a	0	0	-2.317708e-01
214.496290	0.866805	dec_nonsocial_reject	0.866805	32.000000	n/a	0	0	-2.994792e-02
214.496290	0.866805	dec_reject	0.866805	32.000000	n/a	0	0	-3.846154e-02
214.496290	0.866805	dec_nonsocial_reject_low	0.866805	32.000000	n/a	2	-1.988636e-02	-8.238636e-02
221.330230	0.982854	dec_social_choice	0.982854	16.000000	n/a	0	0	-2.311198e-01
221.330230	0.982854	dec_choice	0.982854	16.000000	n/a	0	0	-2.304688e-01
221.330230	0.982854	dec_social_reject	0.982854	16.000000	n/a	0	0	3.255208e-02
221.330230	0.982854	dec_reject	0.982854	16.000000	n/a	0	0	4.261364e-02
221.330230	0.982854	dec_social_reject_low	0.982854	16.000000	n/a	2	-1.054688e-01	-2.304688e-01
228.979630	0.734079	dec_nonsocial_choice	0.734079	16.000000	n/a	0	0	-2.311198e-01
228.979630	0.734079	dec_choice	0.734079	16.000000	n/a	0	0	-2.317708e-01
228.979630	0.734079	dec_nonsocial_reject	0.734079	16.000000	n/a	0	0	3.255208e-02
228.979630	0.734079	dec_reject	0.734079	16.000000	n/a	0	0	2.403846e-02
228.979630	0.734079	dec_nonsocial_reject_low	0.734079	16.000000	n/a	2	4.261364e-02	-8.238636e-02
238.230210	1.133381	dec_social_choice	1.133381	32.000000	n/a	0	0	-2.311198e-01
238.230210	1.133381	dec_choice	1.133381	32.000000	n/a	0	0	-2.304688e-01
238.230210	1.133381	dec_social_reject	1.133381	32.000000	n/a	0	0	-2.994792e-02
238.230210	1.133381	dec_reject	1.133381	32.000000	n/a	0	0	-1.988636e-02
238.230210	1.133381	dec_social_low	1.133381	32.000000	n/a	0	-2.304688e-01	-2.304688e-01
238.230210	1.133381	dec_social_reject_low	1.133381	32.000000	n/a	2	-1.679688e-01	-2.304688e-01
245.880110	1.599949	dec_social_choice	1.599949	32.000000	n/a	8	1.888021e-02	1.888021e-02
245.880110	1.599949	dec_choice	1.599949	32.000000	n/a	8	1.953125e-02	1.953125e-02
245.880110	1.599949	dec_social_accept	1.599949	32.000000	n/a	8	-1.197917e-01	-1.197917e-01
245.880110	1.599949	dec_accept	1.599949	32.000000	n/a	8	-1.057692e-01	-1.057692e-01
245.880110	1.599949	dec_social_high	1.599949	32.000000	n/a	8	1.953125e-02	1.953125e-02
245.880110	1.599949	dec_social_accept_high	1.599949	32.000000	n/a	8	1.953125e-02	1.953125e-02
255.129210	1.150884	dec_social_choice	1.150884	32.000000	n/a	0	0	-2.311198e-01
255.129210	1.150884	dec_choice	1.150884	32.000000	n/a	0	0	-2.304688e-01
255.129210	1.150884	dec_social_reject	1.150884	32.000000	n/a	0	0	-2.994792e-02
255.129210	1.150884	dec_reject	1.150884	32.000000	n/a	0	0	-1.988636e-02
255.129210	1.150884	dec_social_low	1.150884	32.000000	n/a	0	-2.304688e-01	-2.304688e-01
255.129210	1.150884	dec_social_reject_low	1.150884	32.000000	n/a	2	-1.679688e-01	-2.304688e-01
261.963900	2.849617	dec_nonsocial_choice	2.849617	32.000000	n/a	16	2.688802e-01	2.688802e-01
261.963900	2.849617	dec_choice	2.849617	32.000000	n/a	16	2.682292e-01	2.682292e-01
261.963900	2.849617	dec_nonsocial_accept	2.849617	32.000000	n/a	16	1.302083e-01	1.302083e-01
261.963900	2.849617	dec_accept	2.849617	32.000000	n/a	16	1.136364e-01	1.136364e-01
261.963900	2.849617	dec_nonsocial_high	2.849617	32.000000	n/a	16	2.682292e-01	2.682292e-01
261.963900	2.849617	dec_nonsocial_accept_high	2.849617	32.000000	n/a	16	1.136364e-01	1.136364e-01
268.796780	0.783558	dec_nonsocial_choice	0.783558	16.000000	n/a	0	0	-2.311198e-01
268.796780	0.783558	dec_choice	0.783558	16.000000	n/a	0	0	-2.317708e-01
268.796780	0.783558	dec_nonsocial_reject	0.783558	16.000000	n/a	0	0	-2.994792e-02
268.796780	0.783558	dec_reject	0.783558	16.000000	n/a	0	0	-3.846154e-02
268.796780	0.783558	dec_nonsocial_reject_low	0.783558	16.000000	n/a	1	-1.988636e-02	-8.238636e-02
279.664300	1.199270	dec_nonsocial_choice	1.199270	32.000000	n/a	0	0	-2.311198e-01
279.664300	1.199270	dec_choice	1.199270	32.000000	n/a	0	0	-2.317708e-01
279.664300	1.199270	dec_nonsocial_reject	1.199270	32.000000	n/a	0	0	1.302083e-03
279.664300	1.199270	dec_reject	1.199270	32.000000	n/a	0	0	-7.211538e-03
279.664300	1.199270	dec_nonsocial_reject_low	1.199270	32.000000	n/a	3	1.136364e-02	-8.238636e-02
286.496060	1.250928	dec_social_choice	1.250928	32.000000	n/a	16	2.688802e-01	2.688802e-01
286.496060	1.250928	dec_choice	1.250928	32.000000	n/a	16	2.695312e-01	2.695312e-01
286.496060	1.250928	dec_social_accept	1.250928	32.000000	n/a	16	1.302083e-01	1.302083e-01
286.496060	1.250928	dec_accept	1.250928	32.000000	n/a	16	1.442308e-01	1.442308e-01
286.496060	1.250928	dec_social_high	1.250928	32.000000	n/a	16	2.695312e-01	2.695312e-01
286.496060	1.250928	dec_social_accept_high	1.250928	32.000000	n/a	16	2.695312e-01	2.695312e-01
293.329500	1.733671	dec_social_choice	1.733671	16.000000	n/a	2	-1.061198e-01	-1.061198e-01
293.329500	1.733671	dec_choice	1.733671	16.000000	n/a	2	-1.054688e-01	-1.054688e-01
293.329500	1.733671	dec_social_accept	1.733671	16.000000	n/a	2	-2.447917e-01	-2.447917e-01
293.329500	1.733671	dec_accept	1.733671	16.000000	n/a	2	-2.307692e-01	-2.307692e-01
293.329500	1.733671	dec_social_accept_low	1.733671	16.000000	n/a	2	-1.054688e-01	-1.054688e-01
300.163940	1.099893	dec_social_choice	1.099893	32.000000	n/a	16	2.688802e-01	2.688802e-01
300.163940	1.099893	dec_choice	1.099893	32.000000	n/a	16	2.695312e-01	2.695312e-01
300.163940	1.099893	dec_social_accept	1.099893	32.000000	n/a	16	1.302083e-01	1.302083e-01
300.163940	1.099893	dec_accept	1.099893	32.000000	n/a	16	1.442308e-01	1.442308e-01
300.163940	1.099893	dec_social_accept_high	1.099893	32.000000	n/a	16	2.695312e-01	2.695312e-01
306.996370	1.266695	dec_nonsocial_choice	1.266695	16.000000	n/a	8	2.688802e-01	2.688802e-01
306.996370	1.266695	dec_choice	1.266695	16.000000	n/a	8	2.682292e-01	2.682292e-01
306.996370	1.266695	dec_nonsocial_accept	1.266695	16.000000	n/a	8	1.302083e-01	1.302083e-01
306.996370	1.266695	dec_accept	1.266695	16.000000	n/a	8	1.136364e-01	1.136364e-01
306.996370	1.266695	dec_nonsocial_high	1.266695	16.000000	n/a	8	2.682292e-01	2.682292e-01
306.996370	1.266695	dec_nonsocial_accept_high	1.266695	16.000000	n/a	8	1.136364e-01	1.136364e-01
317.862820	1.967155	dec_social_choice	1.967155	32.000000	n/a	0	0	-2.311198e-01
317.862820	1.967155	dec_choice	1.967155	32.000000	n/a	0	0	-2.304688e-01
317.862820	1.967155	dec_social_reject	1.967155	32.000000	n/a	0	0	1.302083e-03
317.862820	1.967155	dec_reject	1.967155	32.000000	n/a	0	0	1.136364e-02
317.862820	1.967155	dec_social_reject_low	1.967155	32.000000	n/a	3	-1.367188e-01	-2.304688e-01
324.697570	1.265754	dec_social_choice	1.265754	32.000000	n/a	8	1.888021e-02	1.888021e-02
324.697570	1.265754	dec_choice	1.265754	32.000000	n/a	8	1.953125e-02	1.953125e-02
324.697570	1.265754	dec_social_accept	1.265754	32.000000	n/a	8	-1.197917e-01	-1.197917e-01
324.697570	1.265754	dec_accept	1.265754	32.000000	n/a	8	-1.057692e-01	-1.057692e-01
324.697570	1.265754	dec_social_high	1.265754	32.000000	n/a	8	1.953125e-02	1.953125e-02
324.697570	1.265754	dec_social_accept_high	1.265754	32.000000	n/a	8	1.953125e-02	1.953125e-02
331.531200	0.899137	dec_nonsocial_choice	0.899137	32.000000	n/a	8	1.888021e-02	1.888021e-02
331.531200	0.899137	dec_choice	0.899137	32.000000	n/a	8	1.822917e-02	1.822917e-02
331.531200	0.899137	dec_nonsocial_accept	0.899137	32.000000	n/a	8	-1.197917e-01	-1.197917e-01
331.531200	0.899137	dec_accept	0.899137	32.000000	n/a	8	-1.363636e-01	-1.363636e-01
331.531200	0.899137	dec_nonsocial_accept_high	0.899137	32.000000	n/a	8	-1.057692e-01	-1.057692e-01
340.780240	1.315983	dec_nonsocial_choice	1.315983	32.000000	n/a	8	1.888021e-02	1.888021e-02
340.780240	1.315983	dec_choice	1.315983	32.000000	n/a	8	1.822917e-02	1.822917e-02
340.780240	1.315983	dec_nonsocial_accept	1.315983	32.000000	n/a	8	-1.197917e-01	-1.197917e-01
340.780240	1.315983	dec_accept	1.315983	32.000000	n/a	8	-1.363636e-01	-1.363636e-01
340.780240	1.315983	dec_nonsocial_high	1.315983	32.000000	n/a	8	1.822917e-02	1.822917e-02
340.780240	1.315983	dec_nonsocial_accept_high	1.315983	32.000000	n/a	8	-1.363636e-01	-1.363636e-01
347.613500	1.183339	dec_social_choice	1.183339	32.000000	n/a	16	2.688802e-01	2.688802e-01
347.613500	1.183339	dec_choice	1.183339	32.000000	n/a	16	2.695312e-01	2.695312e-01
347.613500	1.183339	dec_social_accept	1.183339	32.000000	n/a	16	1.302083e-01	1.302083e-01
347.613500	1.183339	dec_accept	1.183339	32.000000	n/a	16	1.442308e-01	1.442308e-01
347.613500	1.183339	dec_social_accept_high	1.183339	32.000000	n/a	16	2.695312e-01	2.695312e-01
358.479740	1.500412	dec_social_choice	1.500412	16.000000	n/a	0	0	-2.311198e-01
358.479740	1.500412	dec_choice	1.500412	16.000000	n/a	0	0	-2.304688e-01
358.479740	1.500412	dec_social_reject	1.500412	16.000000	n/a	0	0	-2.994792e-02
358.479740	1.500412	dec_reject	1.500412	16.000000	n/a	0	0	-1.988636e-02
358.479740	1.500412	dec_social_reject_low	1.500412	16.000000	n/a	1	-1.679688e-01	-2.304688e-01
365.314200	1.199089	dec_nonsocial_choice	1.199089	32.000000	n/a	8	1.888021e-02	1.888021e-02
365.314200	1.199089	dec_choice	1.199089	32.000000	n/a	8	1.822917e-02	1.822917e-02
365.314200	1.199089	dec_nonsocial_accept	1.199089	32.000000	n/a	8	-1.197917e-01	-1.197917e-01
365.314200	1.199089	dec_accept	1.199089	32.000000	n/a	8	-1.363636e-01	-1.363636e-01
365.314200	1.199089	dec_nonsocial_high	1.199089	32.000000	n/a	8	1.822917e-02	1.822917e-02
365.314200	1.199089	dec_nonsocial_accept_high	1.199089	32.000000	n/a	8	-1.363636e-01	-1.363636e-01
372.963350	0.899962	dec_nonsocial_choice	0.899962	32.000000	n/a	8	1.888021e-02	1.888021e-02
372.963350	0.899962	dec_choice	0.899962	32.000000	n/a	8	1.822917e-02	1.822917e-02
372.963350	0.899962	dec_nonsocial_accept	0.899962	32.000000	n/a	8	-1.197917e-01	-1.197917e-01
372.963350	0.899962	dec_accept	0.899962	32.000000	n/a	8	-1.363636e-01	-1.363636e-01
372.963350	0.899962	dec_nonsocial_accept_high	0.899962	32.000000	n/a	8	-1.057692e-01	-1.057692e-01
